
time,ax,ay,az,Latitude,Longitude,Speed (m/s),
0.098634,0.0000,0.0000,0.0000,0.00000000,0.00000000,0.00000000,
0.160725,0.0000,0.0000,0.0000,55.75024175,48.74350549,1.26999998,
0.161885,0.0000,0.0000,0.0000,55.75024175,48.74350549,1.26999998,
0.224515,0.0000,0.0000,0.0000,55.75024175,48.74350549,1.26999998,
0.225168,0.0000,0.0000,0.0000,55.75024175,48.74350549,1.26999998,
0.286679,0.0000,0.0000,0.0000,55.75024175,48.74350549,1.26999998,
0.287367,0.0000,0.0000,0.0000,55.75024175,48.74350549,1.26999998,
0.349652,0.0000,0.0000,0.0000,55.75024175,48.74350549,1.26999998,
0.350454,0.0000,0.0000,0.0000,55.75024175,48.74350549,1.26999998,
0.412860,0.0000,0.0000,0.0000,55.75024175,48.74350549,1.26999998,
0.413996,0.0000,0.0000,0.0000,55.75024175,48.74350549,1.26999998,
0.475389,0.0000,0.0000,0.0000,55.75024175,48.74350549,1.26999998,
0.479517,0.0000,0.0000,0.0000,55.75024175,48.74350549,1.26999998,
0.537154,0.0000,0.0000,0.0000,55.75024175,48.74350549,1.26999998,
0.537792,-0.3828,2.3829,-2.5123,55.75026012,48.74351511,1.55999994,
0.538779,-0.3828,2.3829,-2.5123,55.75026012,48.74351511,1.55999994,
0.600367,-0.3828,2.3829,-2.5123,55.75026012,48.74351511,1.55999994,
0.601180,-0.3828,2.3829,-2.5123,55.75026012,48.74351511,1.55999994,
0.601652,1.0472,-0.7809,-9.7027,55.75026012,48.74351511,1.55999994,
0.663277,1.0472,-0.7809,-9.7027,55.75026012,48.74351511,1.55999994,
0.663944,1.0472,-0.7809,-9.7027,55.75026012,48.74351511,1.55999994,
0.664406,3.0518,-1.4209,3.3611,55.75026012,48.74351511,1.55999994,
0.725648,3.0518,-1.4209,3.3611,55.75026012,48.74351511,1.55999994,
0.726323,3.0518,-1.4209,3.3611,55.75026012,48.74351511,1.55999994,
0.726823,2.4852,-1.1639,4.0779,55.75026012,48.74351511,1.55999994,
0.788115,2.4852,-1.1639,4.0779,55.75026012,48.74351511,1.55999994,
0.788800,2.4852,-1.1639,4.0779,55.75026012,48.74351511,1.55999994,
0.789253,4.3427,-1.5222,-0.4554,55.75026012,48.74351511,1.55999994,
0.850827,4.3427,-1.5222,-0.4554,55.75026012,48.74351511,1.55999994,
0.851538,4.3427,-1.5222,-0.4554,55.75026012,48.74351511,1.55999994,
0.852009,0.8873,1.6998,6.2197,55.75026012,48.74351511,1.55999994,
0.913426,0.8873,1.6998,6.2197,55.75026012,48.74351511,1.55999994,
0.914669,0.8873,1.6998,6.2197,55.75026012,48.74351511,1.55999994,
0.915602,0.1704,0.4739,5.3072,55.75026012,48.74351511,1.55999994,
0.976261,2.3870,0.7165,6.7051,55.75026012,48.74351511,1.55999994,
0.977781,2.3870,0.7165,6.7051,55.75026012,48.74351511,1.55999994,
0.978226,2.3870,0.7165,6.7051,55.75026012,48.74351511,1.55999994,
1.038915,2.7713,-1.0474,-8.5736,55.75026012,48.74351511,1.55999994,
1.040023,2.7713,-1.0474,-8.5736,55.75026012,48.74351511,1.55999994,
1.040464,2.7713,-1.0474,-8.5736,55.75026012,48.74351511,1.55999994,
1.101991,0.6032,1.5405,-7.9399,55.75026012,48.74351511,1.55999994,
1.103254,0.6032,1.5405,-7.9399,55.75026012,48.74351511,1.55999994,
1.103701,0.6032,1.5405,-7.9399,55.75026012,48.74351511,1.55999994,
1.165587,0.6032,1.5405,-7.9399,55.75026012,48.74351511,1.55999994,
1.166240,0.6032,1.5405,-7.9399,55.75026012,48.74351511,1.55999994,
1.166746,-0.9708,1.9559,0.6238,55.75026012,48.74351511,1.55999994,
1.227662,-0.9708,1.9559,0.6238,55.75026012,48.74351511,1.55999994,
1.228488,-0.9708,1.9559,0.6238,55.75026012,48.74351511,1.55999994,
1.228925,-3.0247,1.5194,6.6930,55.75026012,48.74351511,1.55999994,
1.290189,-3.0247,1.5194,6.6930,55.75026012,48.74351511,1.55999994,
1.291106,-3.0247,1.5194,6.6930,55.75026012,48.74351511,1.55999994,
1.291577,-3.1665,3.4947,6.7648,55.75026012,48.74351511,1.55999994,
1.352475,-3.1665,3.4947,6.7648,55.75026012,48.74351511,1.55999994,
1.353183,-3.1665,3.4947,6.7648,55.75026012,48.74351511,1.55999994,
1.353629,-2.0746,3.6404,1.0968,55.75026012,48.74351511,1.55999994,
1.415278,-2.0746,3.6404,1.0968,55.75026012,48.74351511,1.55999994,
1.415930,1.4091,4.5861,-8.5098,55.75026012,48.74351511,1.55999994,
1.416774,1.4091,4.5861,-8.5098,55.75026012,48.74351511,1.55999994,
1.478386,1.4091,4.5861,-8.5098,55.75026012,48.74351511,1.55999994,
1.479211,1.4091,4.5861,-8.5098,55.75026012,48.74351511,1.55999994,
1.479667,4.1812,0.2443,-11.4997,55.75026012,48.74351511,1.55999994,
1.540815,4.1812,0.2443,-11.4997,55.75026012,48.74351511,1.55999994,
1.541485,4.1812,0.2443,-11.4997,55.75026012,48.74351511,1.55999994,
1.541939,5.7880,-1.7708,-0.0422,55.75026012,48.74351511,1.55999994,
1.603789,5.7880,-1.7708,-0.0422,55.75026012,48.74351511,1.55999994,
1.604511,5.7880,-1.7708,-0.0422,55.75026012,48.74351511,1.55999994,
1.604963,3.8685,-3.4488,1.0866,55.75026012,48.74351511,1.55999994,
1.666012,3.8685,-3.4488,1.0866,55.75026012,48.74351511,1.55999994,
1.666734,3.8685,-3.4488,1.0866,55.75026012,48.74351511,1.55999994,
1.667163,5.7261,-2.4168,6.8275,55.75026012,48.74351511,1.55999994,
1.728189,5.7261,-2.4168,6.8275,55.75026012,48.74351511,1.55999994,
1.728846,5.7261,-2.4168,6.8275,55.75026012,48.74351511,1.55999994,
1.729301,4.7156,-0.4594,3.7263,55.75026012,48.74351511,1.55999994,
1.791348,4.7156,-0.4594,3.7263,55.75026012,48.74351511,1.55999994,
1.791977,4.7156,-0.4594,3.7263,55.75026012,48.74351511,1.55999994,
1.792425,3.4976,-0.7482,-4.7863,55.75026012,48.74351511,1.55999994,
1.853840,3.4976,-0.7482,-4.7863,55.75026012,48.74351511,1.55999994,
1.854636,3.4976,-0.7482,-4.7863,55.75026012,48.74351511,1.55999994,
1.855159,-2.1905,6.8803,-15.4890,55.75026012,48.74351511,1.55999994,
1.916972,-2.1905,6.8803,-15.4890,55.75026012,48.74351511,1.55999994,
1.917805,-2.1905,6.8803,-15.4890,55.75026012,48.74351511,1.55999994,
1.918359,-1.5486,1.1057,-3.8132,55.75026012,48.74351511,1.55999994,
1.980668,-1.5486,1.1057,-3.8132,55.75026012,48.74351511,1.55999994,
1.981326,-1.5486,1.1057,-3.8132,55.75026012,48.74351511,1.55999994,
1.981773,-0.1210,0.5554,7.2928,55.75026012,48.74351511,1.55999994,
2.042206,-0.1210,0.5554,7.2928,55.75026012,48.74351511,1.55999994,
2.042830,-0.1210,0.5554,7.2928,55.75026012,48.74351511,1.55999994,
2.043349,-1.8893,2.9066,6.9140,55.75026012,48.74351511,1.55999994,
2.106303,-1.8893,2.9066,6.9140,55.75026012,48.74351511,1.55999994,
2.106951,-1.8893,2.9066,6.9140,55.75026012,48.74351511,1.55999994,
2.107397,-2.8572,3.9139,6.3669,55.75026012,48.74351511,1.55999994,
2.167456,-2.8572,3.9139,6.3669,55.75026012,48.74351511,1.55999994,
2.168116,-2.8572,3.9139,6.3669,55.75026012,48.74351511,1.55999994,
2.168599,-3.1823,6.2631,-5.9622,55.75026012,48.74351511,1.55999994,
2.230798,4.0301,3.0831,-9.4612,55.75026012,48.74351511,1.55999994,
2.231801,4.0301,3.0831,-9.4612,55.75026012,48.74351511,1.55999994,
2.232237,4.0301,3.0831,-9.4612,55.75026012,48.74351511,1.55999994,
2.292854,4.0301,3.0831,-9.4612,55.75026012,48.74351511,1.55999994,
2.293542,4.0301,3.0831,-9.4612,55.75026012,48.74351511,1.55999994,
2.293991,9.1246,-7.8509,-2.5979,55.75026012,48.74351511,1.55999994,
2.355297,9.1246,-7.8509,-2.5979,55.75026012,48.74351511,1.55999994,
2.355948,9.1246,-7.8509,-2.5979,55.75026012,48.74351511,1.55999994,
2.356408,6.4202,-4.9150,4.8334,55.75026012,48.74351511,1.55999994,
2.418972,6.4202,-4.9150,4.8334,55.75026012,48.74351511,1.55999994,
2.419823,6.4202,-4.9150,4.8334,55.75026012,48.74351511,1.55999994,
2.420269,3.5643,-0.1926,6.1627,55.75026012,48.74351511,1.55999994,
2.482150,3.5643,-0.1926,6.1627,55.75026012,48.74351511,1.55999994,
2.483409,3.5643,-0.1926,6.1627,55.75026012,48.74351511,1.55999994,
2.484418,4.1878,2.7677,-3.5009,55.75026012,48.74351511,1.55999994,
2.543564,4.1878,2.7677,-3.5009,55.75026012,48.74351511,1.55999994,
2.544184,4.1878,2.7677,-3.5009,55.75030110,48.74354148,2.07999992,
2.544861,-1.5612,6.0638,-15.1379,55.75030110,48.74354148,2.07999992,
2.607183,-2.6892,-0.9931,-2.1812,55.75030110,48.74354148,2.07999992,
2.608241,-2.6892,-0.9931,-2.1812,55.75030110,48.74354148,2.07999992,
2.608670,-2.6892,-0.9931,-2.1812,55.75030110,48.74354148,2.07999992,
2.669434,-0.8134,0.7476,4.7603,55.75030110,48.74354148,2.07999992,
2.670432,-0.8134,0.7476,4.7603,55.75030110,48.74354148,2.07999992,
2.670876,-0.8134,0.7476,4.7603,55.75030110,48.74354148,2.07999992,
2.732022,-0.8134,0.7476,4.7603,55.75030110,48.74354148,2.07999992,
2.732664,-0.8134,0.7476,4.7603,55.75030110,48.74354148,2.07999992,
2.733136,-1.7446,5.2031,9.0597,55.75030110,48.74354148,2.07999992,
2.795036,-1.7446,5.2031,9.0597,55.75030110,48.74354148,2.07999992,
2.795679,-1.7446,5.2031,9.0597,55.75030110,48.74354148,2.07999992,
2.796126,-3.7619,6.6325,6.5151,55.75030110,48.74354148,2.07999992,
2.857731,-3.7619,6.6325,6.5151,55.75030110,48.74354148,2.07999992,
2.858356,-3.7619,6.6325,6.5151,55.75030110,48.74354148,2.07999992,
2.858791,-2.0179,5.7197,-5.5067,55.75030110,48.74354148,2.07999992,
2.920050,2.6771,4.7978,-12.7393,55.75030110,48.74354148,2.07999992,
2.921049,2.6771,4.7978,-12.7393,55.75030110,48.74354148,2.07999992,
2.921487,2.6771,4.7978,-12.7393,55.75030110,48.74354148,2.07999992,
2.982817,2.6771,4.7978,-12.7393,55.75030110,48.74354148,2.07999992,
2.983561,2.6771,4.7978,-12.7393,55.75030110,48.74354148,2.07999992,
2.984048,5.5653,-6.5074,-5.4673,55.75030110,48.74354148,2.07999992,
3.045228,5.5653,-6.5074,-5.4673,55.75030110,48.74354148,2.07999992,
3.045866,5.5653,-6.5074,-5.4673,55.75030110,48.74354148,2.07999992,
3.046295,5.1150,-3.1172,4.8180,55.75030110,48.74354148,2.07999992,
3.108231,5.1150,-3.1172,4.8180,55.75030110,48.74354148,2.07999992,
3.108864,5.1150,-3.1172,4.8180,55.75030110,48.74354148,2.07999992,
3.109304,5.3010,0.3285,8.8005,55.75030110,48.74354148,2.07999992,
3.170871,5.3010,0.3285,8.8005,55.75030110,48.74354148,2.07999992,
3.171512,5.3010,0.3285,8.8005,55.75030110,48.74354148,2.07999992,
3.171950,3.9229,0.3436,4.1967,55.75030110,48.74354148,2.07999992,
3.233722,3.9229,0.3436,4.1967,55.75030110,48.74354148,2.07999992,
3.234422,3.9229,0.3436,4.1967,55.75030110,48.74354148,2.07999992,
3.234898,1.9186,-2.0738,-10.5890,55.75030110,48.74354148,2.07999992,
3.296042,1.9186,-2.0738,-10.5890,55.75030110,48.74354148,2.07999992,
3.297020,1.9186,-2.0738,-10.5890,55.75030110,48.74354148,2.07999992,
3.297743,-3.3023,4.2848,-12.7136,55.75030110,48.74354148,2.07999992,
3.359906,-3.3023,4.2848,-12.7136,55.75030110,48.74354148,2.07999992,
3.360518,-3.3023,4.2848,-12.7136,55.75030110,48.74354148,2.07999992,
3.361271,-1.4871,2.3235,3.5313,55.75030110,48.74354148,2.07999992,
3.421891,-2.6643,3.8772,7.3773,55.75030110,48.74354148,2.07999992,
3.423226,-2.6643,3.8772,7.3773,55.75030110,48.74354148,2.07999992,
3.423659,-2.6643,3.8772,7.3773,55.75030110,48.74354148,2.07999992,
3.485232,-3.6663,5.1576,7.0366,55.75030110,48.74354148,2.07999992,
3.486273,-3.6663,5.1576,7.0366,55.75030110,48.74354148,2.07999992,
3.486743,-3.6663,5.1576,7.0366,55.75030110,48.74354148,2.07999992,
3.549376,-3.6663,5.1576,7.0366,55.75030110,48.74354148,2.07999992,
3.550253,-3.6663,5.1576,7.0366,55.75036695,48.74353952,2.74000001,
3.550997,-3.5992,6.8181,4.5832,55.75036695,48.74353952,2.74000001,
3.610174,-3.5992,6.8181,4.5832,55.75036695,48.74353952,2.74000001,
3.611073,-3.5992,6.8181,4.5832,55.75036695,48.74353952,2.74000001,
3.611521,-0.1209,4.9122,-13.2458,55.75036695,48.74353952,2.74000001,
3.672838,-0.1209,4.9122,-13.2458,55.75036695,48.74353952,2.74000001,
3.673812,-0.1209,4.9122,-13.2458,55.75036695,48.74353952,2.74000001,
3.674275,6.8449,-0.6909,-8.0795,55.75036695,48.74353952,2.74000001,
3.735575,6.8449,-0.6909,-8.0795,55.75036695,48.74353952,2.74000001,
3.736529,6.8449,-0.6909,-8.0795,55.75036695,48.74353952,2.74000001,
3.736982,7.1293,-5.8192,0.0734,55.75036695,48.74353952,2.74000001,
3.800036,5.2889,-1.4990,7.2692,55.75036695,48.74353952,2.74000001,
3.801453,5.2889,-1.4990,7.2692,55.75036695,48.74353952,2.74000001,
3.801899,5.2889,-1.4990,7.2692,55.75036695,48.74353952,2.74000001,
3.861697,5.2889,-1.4990,7.2692,55.75036695,48.74353952,2.74000001,
3.862602,5.2889,-1.4990,7.2692,55.75036695,48.74353952,2.74000001,
3.863114,2.9983,-0.1277,5.9351,55.75036695,48.74353952,2.74000001,
3.925687,5.0349,-0.7299,-5.5555,55.75036695,48.74353952,2.74000001,
3.927030,5.0349,-0.7299,-5.5555,55.75036695,48.74353952,2.74000001,
3.927483,5.0349,-0.7299,-5.5555,55.75036695,48.74353952,2.74000001,
3.986430,-1.8431,3.7592,-18.2881,55.75036695,48.74353952,2.74000001,
3.987909,-1.8431,3.7592,-18.2881,55.75036695,48.74353952,2.74000001,
3.988368,-1.8431,3.7592,-18.2881,55.75036695,48.74353952,2.74000001,
4.049675,-1.8431,3.7592,-18.2881,55.75036695,48.74353952,2.74000001,
4.050640,-1.8431,3.7592,-18.2881,55.75036695,48.74353952,2.74000001,
4.051083,-1.2103,3.2574,0.2779,55.75036695,48.74353952,2.74000001,
4.112664,-1.2103,3.2574,0.2779,55.75036695,48.74353952,2.74000001,
4.113647,-1.2103,3.2574,0.2779,55.75036695,48.74353952,2.74000001,
4.114113,-0.9763,3.4278,8.5723,55.75036695,48.74353952,2.74000001,
4.174152,-0.9763,3.4278,8.5723,55.75036695,48.74353952,2.74000001,
4.175057,-0.9763,3.4278,8.5723,55.75036695,48.74353952,2.74000001,
4.175514,-1.8512,5.6371,9.3436,55.75036695,48.74353952,2.74000001,
4.237451,-1.8512,5.6371,9.3436,55.75036695,48.74353952,2.74000001,
4.238398,-1.8512,5.6371,9.3436,55.75036695,48.74353952,2.74000001,
4.238833,-1.5080,4.1524,6.7291,55.75036695,48.74353952,2.74000001,
4.299557,-1.5080,4.1524,6.7291,55.75036695,48.74353952,2.74000001,
4.300589,-1.5080,4.1524,6.7291,55.75036695,48.74353952,2.74000001,
4.301078,-5.5529,2.0689,-17.9309,55.75036695,48.74353952,2.74000001,
4.364031,2.3148,0.5651,-7.0794,55.75036695,48.74353952,2.74000001,
4.365153,2.3148,0.5651,-7.0794,55.75036695,48.74353952,2.74000001,
4.365582,2.3148,0.5651,-7.0794,55.75036695,48.74353952,2.74000001,
4.425065,2.3148,0.5651,-7.0794,55.75036695,48.74353952,2.74000001,
4.426181,2.3148,0.5651,-7.0794,55.75036695,48.74353952,2.74000001,
4.426765,5.1511,-5.6784,1.9787,55.75036695,48.74353952,2.74000001,
4.488182,5.1511,-5.6784,1.9787,55.75036695,48.74353952,2.74000001,
4.489034,5.1511,-5.6784,1.9787,55.75036695,48.74353952,2.74000001,
4.489485,5.3653,-2.4162,6.6852,55.75036695,48.74353952,2.74000001,
4.550473,5.2263,1.1348,2.9076,55.75036695,48.74353952,2.74000001,
4.551680,5.2263,1.1348,2.9076,55.75038755,48.74355632,2.51999998,
4.552291,5.2263,1.1348,2.9076,55.75038755,48.74355632,2.51999998,
4.612812,5.2263,1.1348,2.9076,55.75038755,48.74355632,2.51999998,
4.613645,5.2263,1.1348,2.9076,55.75038755,48.74355632,2.51999998,
4.614083,3.8739,-0.3466,-5.2274,55.75038755,48.74355632,2.51999998,
4.676432,3.8739,-0.3466,-5.2274,55.75038755,48.74355632,2.51999998,
4.677354,3.8739,-0.3466,-5.2274,55.75038755,48.74355632,2.51999998,
4.677820,-1.1288,3.9591,-9.1207,55.75038755,48.74355632,2.51999998,
4.738776,1.8242,4.5059,3.5118,55.75038755,48.74355632,2.51999998,
4.740107,1.8242,4.5059,3.5118,55.75038755,48.74355632,2.51999998,
4.740560,1.8242,4.5059,3.5118,55.75038755,48.74355632,2.51999998,
4.801048,1.8242,4.5059,3.5118,55.75038755,48.74355632,2.51999998,
4.801881,1.8242,4.5059,3.5118,55.75038755,48.74355632,2.51999998,
4.802312,-0.9985,2.9394,0.3881,55.75038755,48.74355632,2.51999998,
4.863930,-0.9985,2.9394,0.3881,55.75038755,48.74355632,2.51999998,
4.864701,-0.9985,2.9394,0.3881,55.75038755,48.74355632,2.51999998,
4.865449,-2.1535,3.5927,5.7928,55.75038755,48.74355632,2.51999998,
4.926261,-2.1535,3.5927,5.7928,55.75038755,48.74355632,2.51999998,
4.927229,-2.1535,3.5927,5.7928,55.75038755,48.74355632,2.51999998,
4.927804,-2.8486,3.5992,-1.1445,55.75038755,48.74355632,2.51999998,
4.990253,-2.8486,3.5992,-1.1445,55.75038755,48.74355632,2.51999998,
4.991111,-2.8486,3.5992,-1.1445,55.75038755,48.74355632,2.51999998,
4.991542,-0.7684,5.6360,-4.8028,55.75038755,48.74355632,2.51999998,
5.051407,-0.7684,5.6360,-4.8028,55.75038755,48.74355632,2.51999998,
5.052806,-0.7684,5.6360,-4.8028,55.75038755,48.74355632,2.51999998,
5.053764,3.2982,-6.1004,-8.6267,55.75038755,48.74355632,2.51999998,
5.114358,3.2982,-6.1004,-8.6267,55.75038755,48.74355632,2.51999998,
5.115200,3.2982,-6.1004,-8.6267,55.75038755,48.74355632,2.51999998,
5.115640,5.3018,-5.2673,-0.1894,55.75038755,48.74355632,2.51999998,
5.177481,5.3018,-5.2673,-0.1894,55.75038755,48.74355632,2.51999998,
5.178905,5.3018,-5.2673,-0.1894,55.75038755,48.74355632,2.51999998,
5.179889,6.2123,-1.9555,5.0836,55.75038755,48.74355632,2.51999998,
5.240068,6.2123,-1.9555,5.0836,55.75038755,48.74355632,2.51999998,
5.240956,6.2123,-1.9555,5.0836,55.75038755,48.74355632,2.51999998,
5.241415,5.8270,0.7293,-0.8745,55.75038755,48.74355632,2.51999998,
5.302333,5.8270,0.7293,-0.8745,55.75038755,48.74355632,2.51999998,
5.303177,5.8270,0.7293,-0.8745,55.75038755,48.74355632,2.51999998,
5.303620,0.9911,1.5443,-7.4561,55.75038755,48.74355632,2.51999998,
5.365649,0.9911,1.5443,-7.4561,55.75038755,48.74355632,2.51999998,
5.366557,0.9911,1.5443,-7.4561,55.75038755,48.74355632,2.51999998,
5.367012,-2.1303,6.2894,-6.8769,55.75038755,48.74355632,2.51999998,
5.428050,-0.4753,3.8734,2.1801,55.75038755,48.74355632,2.51999998,
5.429525,-0.4753,3.8734,2.1801,55.75038755,48.74355632,2.51999998,
5.430056,-0.4753,3.8734,2.1801,55.75038755,48.74355632,2.51999998,
5.490413,-0.4753,3.8734,2.1801,55.75038755,48.74355632,2.51999998,
5.491161,-0.4753,3.8734,2.1801,55.75038755,48.74355632,2.51999998,
5.491588,-0.6817,3.5175,6.9929,55.75038755,48.74355632,2.51999998,
5.553626,-0.6817,3.5175,6.9929,55.75038755,48.74355632,2.51999998,
5.555061,-0.6817,3.5175,6.9929,55.75040659,48.74357973,2.75999999,
5.556346,-0.8198,5.1077,8.8476,55.75040659,48.74357973,2.75999999,
5.616861,-7.5772,8.8601,-1.7837,55.75040659,48.74357973,2.75999999,
5.618852,-7.5772,8.8601,-1.7837,55.75040659,48.74357973,2.75999999,
5.619712,-7.5772,8.8601,-1.7837,55.75040659,48.74357973,2.75999999,
5.678448,-7.5772,8.8601,-1.7837,55.75040659,48.74357973,2.75999999,
5.679308,-7.5772,8.8601,-1.7837,55.75040659,48.74357973,2.75999999,
5.679840,-10.2688,0.2702,-22.0246,55.75040659,48.74357973,2.75999999,
5.741412,-10.2688,0.2702,-22.0246,55.75040659,48.74357973,2.75999999,
5.742589,-10.2688,0.2702,-22.0246,55.75040659,48.74357973,2.75999999,
5.743310,7.9796,-6.0366,-0.0255,55.75040659,48.74357973,2.75999999,
5.804825,11.9650,-8.6886,-0.6204,55.75040659,48.74357973,2.75999999,
5.806190,11.9650,-8.6886,-0.6204,55.75040659,48.74357973,2.75999999,
5.806701,11.9650,-8.6886,-0.6204,55.75040659,48.74357973,2.75999999,
5.867293,8.1055,-4.2791,-3.2881,55.75040659,48.74357973,2.75999999,
5.868626,8.1055,-4.2791,-3.2881,55.75040659,48.74357973,2.75999999,
5.869100,8.1055,-4.2791,-3.2881,55.75040659,48.74357973,2.75999999,
5.930292,8.1055,-4.2791,-3.2881,55.75040659,48.74357973,2.75999999,
5.931255,8.1055,-4.2791,-3.2881,55.75040659,48.74357973,2.75999999,
5.931733,1.0931,2.7316,-5.9275,55.75040659,48.74357973,2.75999999,
5.992599,1.0931,2.7316,-5.9275,55.75040659,48.74357973,2.75999999,
5.993557,1.0931,2.7316,-5.9275,55.75040659,48.74357973,2.75999999,
5.994027,-8.6251,1.1206,-12.1755,55.75040659,48.74357973,2.75999999,
6.054843,-8.6251,1.1206,-12.1755,55.75040659,48.74357973,2.75999999,
6.055748,-4.0359,8.0210,-3.0215,55.75040659,48.74357973,2.75999999,
6.056605,-4.0359,8.0210,-3.0215,55.75040659,48.74357973,2.75999999,
6.118457,-4.2499,4.9992,3.1162,55.75040659,48.74357973,2.75999999,
6.119860,-4.2499,4.9992,3.1162,55.75040659,48.74357973,2.75999999,
6.120313,-4.2499,4.9992,3.1162,55.75040659,48.74357973,2.75999999,
6.182626,-4.2499,4.9992,3.1162,55.75040659,48.74357973,2.75999999,
6.183586,-4.2499,4.9992,3.1162,55.75040659,48.74357973,2.75999999,
6.184027,-4.8055,5.7412,6.9402,55.75040659,48.74357973,2.75999999,
6.242927,-4.8055,5.7412,6.9402,55.75040659,48.74357973,2.75999999,
6.243951,-4.8055,5.7412,6.9402,55.75040659,48.74357973,2.75999999,
6.244405,-5.4926,11.3894,6.6426,55.75040659,48.74357973,2.75999999,
6.305883,-5.4926,11.3894,6.6426,55.75040659,48.74357973,2.75999999,
6.306889,-5.4926,11.3894,6.6426,55.75040659,48.74357973,2.75999999,
6.307352,-3.9496,6.9075,-9.2669,55.75040659,48.74357973,2.75999999,
6.369214,-3.9496,6.9075,-9.2669,55.75040659,48.74357973,2.75999999,
6.370210,2.9630,-2.9210,-14.1797,55.75040659,48.74357973,2.75999999,
6.371027,2.9630,-2.9210,-14.1797,55.75040659,48.74357973,2.75999999,
6.432438,2.9630,-2.9210,-14.1797,55.75040659,48.74357973,2.75999999,
6.433516,2.9630,-2.9210,-14.1797,55.75040659,48.74357973,2.75999999,
6.433968,11.6491,-6.3988,1.7928,55.75040659,48.74357973,2.75999999,
6.493856,11.6491,-6.3988,1.7928,55.75040659,48.74357973,2.75999999,
6.494849,11.6491,-6.3988,1.7928,55.75040659,48.74357973,2.75999999,
6.495500,6.5463,-4.1046,-0.4453,55.75040659,48.74357973,2.75999999,
6.556146,6.5463,-4.1046,-0.4453,55.75040659,48.74357973,2.75999999,
6.556998,6.5463,-4.1046,-0.4453,55.75042693,48.74360148,2.66000009,
6.557699,6.1072,-2.6483,-1.2235,55.75042693,48.74360148,2.66000009,
6.619707,6.1072,-2.6483,-1.2235,55.75042693,48.74360148,2.66000009,
6.620729,6.1072,-2.6483,-1.2235,55.75042693,48.74360148,2.66000009,
6.621212,1.6684,-1.5503,-8.9602,55.75042693,48.74360148,2.66000009,
6.681487,1.6684,-1.5503,-8.9602,55.75042693,48.74360148,2.66000009,
6.682437,1.6684,-1.5503,-8.9602,55.75042693,48.74360148,2.66000009,
6.682898,-7.0328,4.2178,-15.9897,55.75042693,48.74360148,2.66000009,
6.744947,-7.0328,4.2178,-15.9897,55.75042693,48.74360148,2.66000009,
6.745840,-7.0328,4.2178,-15.9897,55.75042693,48.74360148,2.66000009,
6.746299,-2.5318,5.7888,-0.5771,55.75042693,48.74360148,2.66000009,
6.807745,-2.5318,5.7888,-0.5771,55.75042693,48.74360148,2.66000009,
6.808617,-2.5318,5.7888,-0.5771,55.75042693,48.74360148,2.66000009,
6.809062,-4.0283,4.7335,6.2940,55.75042693,48.74360148,2.66000009,
6.871036,-4.0283,4.7335,6.2940,55.75042693,48.74360148,2.66000009,
6.871927,-4.0283,4.7335,6.2940,55.75042693,48.74360148,2.66000009,
6.872397,-5.6908,5.5013,9.9568,55.75042693,48.74360148,2.66000009,
6.932935,-5.6908,5.5013,9.9568,55.75042693,48.74360148,2.66000009,
6.933901,-5.6908,5.5013,9.9568,55.75042693,48.74360148,2.66000009,
6.934381,-2.8746,9.5724,7.4437,55.75042693,48.74360148,2.66000009,
6.995419,-2.8746,9.5724,7.4437,55.75042693,48.74360148,2.66000009,
6.996351,-2.8746,9.5724,7.4437,55.75042693,48.74360148,2.66000009,
6.996839,3.1895,4.4829,-3.4040,55.75042693,48.74360148,2.66000009,
7.058123,0.3435,6.4888,-23.4924,55.75042693,48.74360148,2.66000009,
7.059701,0.3435,6.4888,-23.4924,55.75042693,48.74360148,2.66000009,
7.060415,0.3435,6.4888,-23.4924,55.75042693,48.74360148,2.66000009,
7.121118,4.5051,-10.4067,6.4480,55.75042693,48.74360148,2.66000009,
7.122642,4.5051,-10.4067,6.4480,55.75042693,48.74360148,2.66000009,
7.123294,4.5051,-10.4067,6.4480,55.75042693,48.74360148,2.66000009,
7.184021,4.5051,-10.4067,6.4480,55.75042693,48.74360148,2.66000009,
7.185239,4.5051,-10.4067,6.4480,55.75042693,48.74360148,2.66000009,
7.185801,3.2635,-8.0747,5.4168,55.75042693,48.74360148,2.66000009,
7.246818,3.2635,-8.0747,5.4168,55.75042693,48.74360148,2.66000009,
7.247684,3.2635,-8.0747,5.4168,55.75042693,48.74360148,2.66000009,
7.248155,3.4295,-3.1960,3.0201,55.75042693,48.74360148,2.66000009,
7.309557,3.4295,-3.1960,3.0201,55.75042693,48.74360148,2.66000009,
7.310564,3.4295,-3.1960,3.0201,55.75042693,48.74360148,2.66000009,
7.311026,4.9763,-1.1124,-6.2809,55.75042693,48.74360148,2.66000009,
7.371894,4.9763,-1.1124,-6.2809,55.75042693,48.74360148,2.66000009,
7.372826,4.9763,-1.1124,-6.2809,55.75042693,48.74360148,2.66000009,
7.373339,1.1105,4.3955,-19.3174,55.75042693,48.74360148,2.66000009,
7.434753,1.1105,4.3955,-19.3174,55.75042693,48.74360148,2.66000009,
7.435826,1.1105,4.3955,-19.3174,55.75042693,48.74360148,2.66000009,
7.436287,1.1324,5.4801,0.8790,55.75042693,48.74360148,2.66000009,
7.496606,1.1324,5.4801,0.8790,55.75042693,48.74360148,2.66000009,
7.497581,1.1324,5.4801,0.8790,55.75042693,48.74360148,2.66000009,
7.498013,-1.5946,5.5981,7.7170,55.75042693,48.74360148,2.66000009,
7.559120,-1.5946,5.5981,7.7170,55.75042693,48.74360148,2.66000009,
7.560152,-1.5946,5.5981,7.7170,55.75044555,48.74361790,1.92999995,
7.560866,-7.4999,6.2851,8.0293,55.75044555,48.74361790,1.92999995,
7.622791,-7.4999,6.2851,8.0293,55.75044555,48.74361790,1.92999995,
7.623743,-7.4999,6.2851,8.0293,55.75044555,48.74361790,1.92999995,
7.624207,-8.8182,5.4481,1.3885,55.75044555,48.74361790,1.92999995,
7.685689,-8.8182,5.4481,1.3885,55.75044555,48.74361790,1.92999995,
7.687479,-8.8182,5.4481,1.3885,55.75044555,48.74361790,1.92999995,
7.688584,-7.5087,9.6494,-10.4993,55.75044555,48.74361790,1.92999995,
7.748430,-7.5087,9.6494,-10.4993,55.75044555,48.74361790,1.92999995,
7.749667,-7.5087,9.6494,-10.4993,55.75044555,48.74361790,1.92999995,
7.750335,1.3435,1.1730,-16.6868,55.75044555,48.74361790,1.92999995,
7.810783,12.0728,-6.2554,2.5575,55.75044555,48.74361790,1.92999995,
7.812159,12.0728,-6.2554,2.5575,55.75044555,48.74361790,1.92999995,
7.812593,12.0728,-6.2554,2.5575,55.75044555,48.74361790,1.92999995,
7.873218,12.0728,-6.2554,2.5575,55.75044555,48.74361790,1.92999995,
7.874141,8.7342,-8.0251,0.8522,55.75044555,48.74361790,1.92999995,
7.874963,8.7342,-8.0251,0.8522,55.75044555,48.74361790,1.92999995,
7.935630,8.7342,-8.0251,0.8522,55.75044555,48.74361790,1.92999995,
7.936439,8.7342,-8.0251,0.8522,55.75044555,48.74361790,1.92999995,
7.936907,-1.0011,-13.5437,-8.5267,55.75044555,48.74361790,1.92999995,
7.998654,-1.0011,-13.5437,-8.5267,55.75044555,48.74361790,1.92999995,
7.999585,-1.0011,-13.5437,-8.5267,55.75044555,48.74361790,1.92999995,
8.000113,-5.7509,0.9044,-9.0147,55.75044555,48.74361790,1.92999995,
8.061487,-4.7644,7.4828,-10.1501,55.75044555,48.74361790,1.92999995,
8.062899,-4.7644,7.4828,-10.1501,55.75044555,48.74361790,1.92999995,
8.063452,-4.7644,7.4828,-10.1501,55.75044555,48.74361790,1.92999995,
8.123888,-4.7644,7.4828,-10.1501,55.75044555,48.74361790,1.92999995,
8.124822,-4.7644,7.4828,-10.1501,55.75044555,48.74361790,1.92999995,
8.125306,-0.1521,5.6577,0.5869,55.75044555,48.74361790,1.92999995,
8.187156,2.1254,5.8853,4.2127,55.75044555,48.74361790,1.92999995,
8.188510,2.1254,5.8853,4.2127,55.75044555,48.74361790,1.92999995,
8.188964,2.1254,5.8853,4.2127,55.75044555,48.74361790,1.92999995,
8.250507,-0.7133,6.7364,8.8226,55.75044555,48.74361790,1.92999995,
8.251955,-0.7133,6.7364,8.8226,55.75044555,48.74361790,1.92999995,
8.252414,-0.7133,6.7364,8.8226,55.75044555,48.74361790,1.92999995,
8.313989,-0.7133,6.7364,8.8226,55.75044555,48.74361790,1.92999995,
8.314882,-0.7133,6.7364,8.8226,55.75044555,48.74361790,1.92999995,
8.315342,-6.3640,8.0443,3.4554,55.75044555,48.74361790,1.92999995,
8.376909,-6.3640,8.0443,3.4554,55.75044555,48.74361790,1.92999995,
8.377937,-6.3640,8.0443,3.4554,55.75044555,48.74361790,1.92999995,
8.378401,-10.5478,3.7144,-17.1341,55.75044555,48.74361790,1.92999995,
8.439860,1.8845,-6.7538,-6.1006,55.75044555,48.74361790,1.92999995,
8.441166,1.8845,-6.7538,-6.1006,55.75044555,48.74361790,1.92999995,
8.441596,1.8845,-6.7538,-6.1006,55.75044555,48.74361790,1.92999995,
8.508129,1.8845,-6.7538,-6.1006,55.75044555,48.74361790,1.92999995,
8.509029,1.8845,-6.7538,-6.1006,55.75044555,48.74361790,1.92999995,
8.509472,9.3866,-6.4494,0.8156,55.75044555,48.74361790,1.92999995,
8.564539,9.3866,-6.4494,0.8156,55.75044555,48.74361790,1.92999995,
8.565508,8.7275,-3.4189,5.7815,55.75046950,48.74362497,2.58999991,
8.566485,8.7275,-3.4189,5.7815,55.75046950,48.74362497,2.58999991,
8.627697,8.7275,-3.4189,5.7815,55.75046950,48.74362497,2.58999991,
8.628701,8.7275,-3.4189,5.7815,55.75046950,48.74362497,2.58999991,
8.629149,5.8681,-2.0250,0.2750,55.75046950,48.74362497,2.58999991,
8.688751,5.8681,-2.0250,0.2750,55.75046950,48.74362497,2.58999991,
8.689707,5.8681,-2.0250,0.2750,55.75046950,48.74362497,2.58999991,
8.690188,0.3109,2.2597,-9.5988,55.75046950,48.74362497,2.58999991,
8.751879,0.3109,2.2597,-9.5988,55.75046950,48.74362497,2.58999991,
8.752819,0.3109,2.2597,-9.5988,55.75046950,48.74362497,2.58999991,
8.753314,-2.5422,3.5077,-12.3637,55.75046950,48.74362497,2.58999991,
8.814693,-2.5422,3.5077,-12.3637,55.75046950,48.74362497,2.58999991,
8.815640,-2.5422,3.5077,-12.3637,55.75046950,48.74362497,2.58999991,
8.816104,-0.2822,4.3559,-0.5272,55.75046950,48.74362497,2.58999991,
8.876500,-0.2822,4.3559,-0.5272,55.75046950,48.74362497,2.58999991,
8.877411,-0.2822,4.3559,-0.5272,55.75046950,48.74362497,2.58999991,
8.877858,0.7465,6.0069,4.6498,55.75046950,48.74362497,2.58999991,
8.939937,0.7465,6.0069,4.6498,55.75046950,48.74362497,2.58999991,
8.941023,0.7465,6.0069,4.6498,55.75046950,48.74362497,2.58999991,
8.941505,-1.1873,8.1412,9.5290,55.75046950,48.74362497,2.58999991,
9.001644,-1.1873,8.1412,9.5290,55.75046950,48.74362497,2.58999991,
9.002575,-1.1873,8.1412,9.5290,55.75046950,48.74362497,2.58999991,
9.003034,-5.2577,6.9661,5.2137,55.75046950,48.74362497,2.58999991,
9.064427,-5.2577,6.9661,5.2137,55.75046950,48.74362497,2.58999991,
9.065456,-5.2577,6.9661,5.2137,55.75046950,48.74362497,2.58999991,
9.065921,-8.6093,3.9239,-17.9699,55.75046950,48.74362497,2.58999991,
9.127216,-8.6093,3.9239,-17.9699,55.75046950,48.74362497,2.58999991,
9.128099,-8.6093,3.9239,-17.9699,55.75046950,48.74362497,2.58999991,
9.128571,3.1701,-2.2236,-8.3974,55.75046950,48.74362497,2.58999991,
9.189963,3.1701,-2.2236,-8.3974,55.75046950,48.74362497,2.58999991,
9.190889,3.1701,-2.2236,-8.3974,55.75046950,48.74362497,2.58999991,
9.191351,11.3954,-13.0449,6.2966,55.75046950,48.74362497,2.58999991,
9.253769,11.3954,-13.0449,6.2966,55.75046950,48.74362497,2.58999991,
9.254942,11.3954,-13.0449,6.2966,55.75046950,48.74362497,2.58999991,
9.255543,5.0043,-5.3405,5.2207,55.75046950,48.74362497,2.58999991,
9.315797,5.0043,-5.3405,5.2207,55.75046950,48.74362497,2.58999991,
9.316837,5.0043,-5.3405,5.2207,55.75046950,48.74362497,2.58999991,
9.317272,4.1390,-1.3779,1.5904,55.75046950,48.74362497,2.58999991,
9.378478,1.1810,-1.0562,-11.7969,55.75046950,48.74362497,2.58999991,
9.379869,1.1810,-1.0562,-11.7969,55.75046950,48.74362497,2.58999991,
9.380349,1.1810,-1.0562,-11.7969,55.75046950,48.74362497,2.58999991,
9.440856,-5.9963,4.9690,-20.3457,55.75046950,48.74362497,2.58999991,
9.442531,-5.9963,4.9690,-20.3457,55.75046950,48.74362497,2.58999991,
9.443166,-5.9963,4.9690,-20.3457,55.75046950,48.74362497,2.58999991,
9.506228,-5.9963,4.9690,-20.3457,55.75046950,48.74362497,2.58999991,
9.507533,-2.1390,7.6479,2.4073,55.75046950,48.74362497,2.58999991,
9.508349,-2.1390,7.6479,2.4073,55.75046950,48.74362497,2.58999991,
9.566748,-3.9595,8.1261,7.7650,55.75046950,48.74362497,2.58999991,
9.568008,-3.9595,8.1261,7.7650,55.75049332,48.74363386,2.41000009,
9.568620,-3.9595,8.1261,7.7650,55.75049332,48.74363386,2.41000009,
9.628868,-3.9595,8.1261,7.7650,55.75049332,48.74363386,2.41000009,
9.629778,-3.9595,8.1261,7.7650,55.75049332,48.74363386,2.41000009,
9.630355,-3.7387,11.3086,10.4884,55.75049332,48.74363386,2.41000009,
9.691748,-4.4507,10.1916,-1.8830,55.75049332,48.74363386,2.41000009,
9.692995,-4.4507,10.1916,-1.8830,55.75049332,48.74363386,2.41000009,
9.693476,-4.4507,10.1916,-1.8830,55.75049332,48.74363386,2.41000009,
9.755011,-4.4507,10.1916,-1.8830,55.75049332,48.74363386,2.41000009,
9.755964,-4.4507,10.1916,-1.8830,55.75049332,48.74363386,2.41000009,
9.756424,-1.8632,1.3122,-23.7302,55.75049332,48.74363386,2.41000009,
9.817437,-1.8632,1.3122,-23.7302,55.75049332,48.74363386,2.41000009,
9.818629,-1.8632,1.3122,-23.7302,55.75049332,48.74363386,2.41000009,
9.819184,8.5092,-5.3883,-3.1695,55.75049332,48.74363386,2.41000009,
9.880069,8.5092,-5.3883,-3.1695,55.75049332,48.74363386,2.41000009,
9.880995,8.5092,-5.3883,-3.1695,55.75049332,48.74363386,2.41000009,
9.881463,7.3680,-12.2175,3.9443,55.75049332,48.74363386,2.41000009,
9.942875,7.3680,-12.2175,3.9443,55.75049332,48.74363386,2.41000009,
9.943836,7.3680,-12.2175,3.9443,55.75049332,48.74363386,2.41000009,
9.944277,4.5767,-6.1796,5.6469,55.75049332,48.74363386,2.41000009,
10.005076,5.3252,-2.0639,5.1934,55.75049332,48.74363386,2.41000009,
10.006599,5.3252,-2.0639,5.1934,55.75049332,48.74363386,2.41000009,
10.007066,5.3252,-2.0639,5.1934,55.75049332,48.74363386,2.41000009,
10.068332,5.3252,-2.0639,5.1934,55.75049332,48.74363386,2.41000009,
10.069765,5.3252,-2.0639,5.1934,55.75049332,48.74363386,2.41000009,
10.070590,5.7820,0.0600,-14.2359,55.75049332,48.74363386,2.41000009,
10.130766,5.7820,0.0600,-14.2359,55.75049332,48.74363386,2.41000009,
10.131707,5.7820,0.0600,-14.2359,55.75049332,48.74363386,2.41000009,
10.132157,-1.8284,4.3916,-22.2292,55.75049332,48.74363386,2.41000009,
10.194980,-1.8284,4.3916,-22.2292,55.75049332,48.74363386,2.41000009,
10.196169,-1.8284,4.3916,-22.2292,55.75049332,48.74363386,2.41000009,
10.196807,-1.8766,9.0911,0.3228,55.75049332,48.74363386,2.41000009,
10.255429,-1.8766,9.0911,0.3228,55.75049332,48.74363386,2.41000009,
10.256313,-1.8766,9.0911,0.3228,55.75049332,48.74363386,2.41000009,
10.256847,-5.0307,9.7878,7.7767,55.75049332,48.74363386,2.41000009,
10.318179,-5.0307,9.7878,7.7767,55.75049332,48.74363386,2.41000009,
10.319106,-5.8498,10.1868,10.1182,55.75049332,48.74363386,2.41000009,
10.319951,-5.8498,10.1868,10.1182,55.75049332,48.74363386,2.41000009,
10.381660,-4.3369,8.7236,1.2463,55.75049332,48.74363386,2.41000009,
10.382930,-4.3369,8.7236,1.2463,55.75049332,48.74363386,2.41000009,
10.383431,-4.3369,8.7236,1.2463,55.75049332,48.74363386,2.41000009,
10.443463,-4.3369,8.7236,1.2463,55.75049332,48.74363386,2.41000009,
10.444280,-4.3369,8.7236,1.2463,55.75049332,48.74363386,2.41000009,
10.444732,0.0214,3.7148,-16.4180,55.75049332,48.74363386,2.41000009,
10.508841,0.0214,3.7148,-16.4180,55.75049332,48.74363386,2.41000009,
10.509764,0.0214,3.7148,-16.4180,55.75049332,48.74363386,2.41000009,
10.510212,6.2476,-1.4443,-9.9114,55.75049332,48.74363386,2.41000009,
10.569172,7.4946,-10.2693,1.3445,55.75049332,48.74363386,2.41000009,
10.570574,7.4946,-10.2693,1.3445,55.75051681,48.74364411,2.28999996,
10.571352,7.4946,-10.2693,1.3445,55.75051681,48.74364411,2.28999996,
10.632113,7.4946,-10.2693,1.3445,55.75051681,48.74364411,2.28999996,
10.633368,7.4946,-10.2693,1.3445,55.75051681,48.74364411,2.28999996,
10.633969,6.5327,-7.4684,0.5615,55.75051681,48.74364411,2.28999996,
10.694828,6.5327,-7.4684,0.5615,55.75051681,48.74364411,2.28999996,
10.696252,6.5327,-7.4684,0.5615,55.75051681,48.74364411,2.28999996,
10.696767,4.3156,-1.0739,2.2430,55.75051681,48.74364411,2.28999996,
10.757729,4.3156,-1.0739,2.2430,55.75051681,48.74364411,2.28999996,
10.758617,4.3156,-1.0739,2.2430,55.75051681,48.74364411,2.28999996,
10.759070,5.8085,3.4371,-0.5494,55.75051681,48.74364411,2.28999996,
10.819938,5.8085,3.4371,-0.5494,55.75051681,48.74364411,2.28999996,
10.820962,5.8085,3.4371,-0.5494,55.75051681,48.74364411,2.28999996,
10.821424,-1.2138,-1.0926,-17.5084,55.75051681,48.74364411,2.28999996,
10.882240,-1.7158,4.9777,-2.2217,55.75051681,48.74364411,2.28999996,
10.883424,-1.7158,4.9777,-2.2217,55.75051681,48.74364411,2.28999996,
10.883880,-1.7158,4.9777,-2.2217,55.75051681,48.74364411,2.28999996,
10.945651,-1.7158,4.9777,-2.2217,55.75051681,48.74364411,2.28999996,
10.946633,-1.7158,4.9777,-2.2217,55.75051681,48.74364411,2.28999996,
10.947077,-2.0489,4.3506,6.1839,55.75051681,48.74364411,2.28999996,
11.008913,-2.0489,4.3506,6.1839,55.75051681,48.74364411,2.28999996,
11.009896,-2.0489,4.3506,6.1839,55.75051681,48.74364411,2.28999996,
11.010380,-3.5696,4.9681,6.2971,55.75051681,48.74364411,2.28999996,
11.070732,-3.5696,4.9681,6.2971,55.75051681,48.74364411,2.28999996,
11.071604,-3.5696,4.9681,6.2971,55.75051681,48.74364411,2.28999996,
11.072034,-5.2258,9.4630,3.6906,55.75051681,48.74364411,2.28999996,
11.133560,-5.2258,9.4630,3.6906,55.75051681,48.74364411,2.28999996,
11.134452,-5.2258,9.4630,3.6906,55.75051681,48.74364411,2.28999996,
11.134905,-4.5383,6.5926,-11.7434,55.75051681,48.74364411,2.28999996,
11.196337,-4.5383,6.5926,-11.7434,55.75051681,48.74364411,2.28999996,
11.197367,-4.5383,6.5926,-11.7434,55.75051681,48.74364411,2.28999996,
11.197796,1.1809,-0.5802,-14.7098,55.75051681,48.74364411,2.28999996,
11.259381,1.1809,-0.5802,-14.7098,55.75051681,48.74364411,2.28999996,
11.260589,1.1809,-0.5802,-14.7098,55.75051681,48.74364411,2.28999996,
11.261182,8.4966,-8.1064,3.3833,55.75051681,48.74364411,2.28999996,
11.322071,8.4966,-8.1064,3.3833,55.75051681,48.74364411,2.28999996,
11.322988,8.4966,-8.1064,3.3833,55.75051681,48.74364411,2.28999996,
11.323498,6.4400,-4.3479,4.8446,55.75051681,48.74364411,2.28999996,
11.385124,6.0447,1.5942,5.4676,55.75051681,48.74364411,2.28999996,
11.386470,6.0447,1.5942,5.4676,55.75051681,48.74364411,2.28999996,
11.386936,6.0447,1.5942,5.4676,55.75051681,48.74364411,2.28999996,
11.447162,6.0447,1.5942,5.4676,55.75051681,48.74364411,2.28999996,
11.448027,6.0447,1.5942,5.4676,55.75051681,48.74364411,2.28999996,
11.448457,4.9085,1.5334,-0.2307,55.75051681,48.74364411,2.28999996,
11.509582,4.9085,1.5334,-0.2307,55.75051681,48.74364411,2.28999996,
11.510477,4.9085,1.5334,-0.2307,55.75054173,48.74365888,2.46000004,
11.511194,-1.7397,-1.7723,-20.8445,55.75054173,48.74365888,2.46000004,
11.572535,-1.7397,-1.7723,-20.8445,55.75054173,48.74365888,2.46000004,
11.573712,-1.7397,-1.7723,-20.8445,55.75054173,48.74365888,2.46000004,
11.574275,-3.1826,-0.1418,-11.4788,55.75054173,48.74365888,2.46000004,
11.636687,-2.9576,2.1164,5.4951,55.75054173,48.74365888,2.46000004,
11.637952,-2.9576,2.1164,5.4951,55.75054173,48.74365888,2.46000004,
11.638397,-2.9576,2.1164,5.4951,55.75054173,48.74365888,2.46000004,
11.697828,-2.9576,2.1164,5.4951,55.75054173,48.74365888,2.46000004,
11.698723,-2.9576,2.1164,5.4951,55.75054173,48.74365888,2.46000004,
11.699170,-1.8326,6.6097,9.9938,55.75054173,48.74365888,2.46000004,
11.760900,-1.8326,6.6097,9.9938,55.75054173,48.74365888,2.46000004,
11.761812,-1.8326,6.6097,9.9938,55.75054173,48.74365888,2.46000004,
11.762265,-1.1955,9.6712,11.5518,55.75054173,48.74365888,2.46000004,
11.823190,-1.1955,9.6712,11.5518,55.75054173,48.74365888,2.46000004,
11.824097,-1.1955,9.6712,11.5518,55.75054173,48.74365888,2.46000004,
11.824535,-1.7375,9.5630,-3.5186,55.75054173,48.74365888,2.46000004,
11.885448,-1.7375,9.5630,-3.5186,55.75054173,48.74365888,2.46000004,
11.886295,-1.7375,9.5630,-3.5186,55.75054173,48.74365888,2.46000004,
11.886781,-3.1498,3.7173,-26.1387,55.75054173,48.74365888,2.46000004,
11.948475,-3.1498,3.7173,-26.1387,55.75054173,48.74365888,2.46000004,
11.949358,-3.1498,3.7173,-26.1387,55.75054173,48.74365888,2.46000004,
11.949828,6.5569,-6.7196,0.4836,55.75054173,48.74365888,2.46000004,
12.011352,6.5569,-6.7196,0.4836,55.75054173,48.74365888,2.46000004,
12.012266,6.5569,-6.7196,0.4836,55.75054173,48.74365888,2.46000004,
12.012706,5.7786,-7.3002,3.0544,55.75054173,48.74365888,2.46000004,
12.073694,5.7786,-7.3002,3.0544,55.75054173,48.74365888,2.46000004,
12.074531,5.7786,-7.3002,3.0544,55.75054173,48.74365888,2.46000004,
12.074987,4.6734,-6.5599,6.8706,55.75054173,48.74365888,2.46000004,
12.137270,4.6734,-6.5599,6.8706,55.75054173,48.74365888,2.46000004,
12.138118,4.6734,-6.5599,6.8706,55.75054173,48.74365888,2.46000004,
12.138566,5.9693,-5.2904,-3.7424,55.75054173,48.74365888,2.46000004,
12.199708,1.2854,0.4372,-17.8892,55.75054173,48.74365888,2.46000004,
12.201036,1.2854,0.4372,-17.8892,55.75054173,48.74365888,2.46000004,
12.201465,1.2854,0.4372,-17.8892,55.75054173,48.74365888,2.46000004,
12.262229,-3.7077,8.5112,-12.3648,55.75054173,48.74365888,2.46000004,
12.263659,-3.7077,8.5112,-12.3648,55.75054173,48.74365888,2.46000004,
12.264098,-3.7077,8.5112,-12.3648,55.75054173,48.74365888,2.46000004,
12.324873,-3.7077,8.5112,-12.3648,55.75054173,48.74365888,2.46000004,
12.325742,-3.7077,8.5112,-12.3648,55.75054173,48.74365888,2.46000004,
12.326181,0.2099,8.0443,4.6691,55.75054173,48.74365888,2.46000004,
12.387431,0.2099,8.0443,4.6691,55.75054173,48.74365888,2.46000004,
12.388304,0.2099,8.0443,4.6691,55.75054173,48.74365888,2.46000004,
12.388751,1.0193,8.0601,8.3491,55.75054173,48.74365888,2.46000004,
12.450780,-1.0620,6.3273,9.1480,55.75054173,48.74365888,2.46000004,
12.452086,-1.0620,6.3273,9.1480,55.75054173,48.74365888,2.46000004,
12.452519,-1.0620,6.3273,9.1480,55.75054173,48.74365888,2.46000004,
12.514181,-1.0620,6.3273,9.1480,55.75054173,48.74365888,2.46000004,
12.515015,-1.0620,6.3273,9.1480,55.75057141,48.74367843,3.31999993,
12.515700,-3.6668,3.8422,1.1896,55.75057141,48.74367843,3.31999993,
12.578042,-3.6668,3.8422,1.1896,55.75057141,48.74367843,3.31999993,
12.579004,-3.6668,3.8422,1.1896,55.75057141,48.74367843,3.31999993,
12.579447,-7.5333,0.3316,-20.4658,55.75057141,48.74367843,3.31999993,
12.639574,4.9647,-3.5532,-3.6828,55.75057141,48.74367843,3.31999993,
12.640878,4.9647,-3.5532,-3.6828,55.75057141,48.74367843,3.31999993,
12.641324,4.9647,-3.5532,-3.6828,55.75057141,48.74367843,3.31999993,
12.701200,6.0592,-11.7742,2.5454,55.75057141,48.74367843,3.31999993,
12.702499,6.0592,-11.7742,2.5454,55.75057141,48.74367843,3.31999993,
12.702948,6.0592,-11.7742,2.5454,55.75057141,48.74367843,3.31999993,
12.763730,6.0592,-11.7742,2.5454,55.75057141,48.74367843,3.31999993,
12.764539,6.0592,-11.7742,2.5454,55.75057141,48.74367843,3.31999993,
12.765111,3.8303,-5.3638,2.2550,55.75057141,48.74367843,3.31999993,
12.826870,7.4366,-0.1561,0.9111,55.75057141,48.74367843,3.31999993,
12.828149,7.4366,-0.1561,0.9111,55.75057141,48.74367843,3.31999993,
12.828593,7.4366,-0.1561,0.9111,55.75057141,48.74367843,3.31999993,
12.889966,4.4067,1.0786,-12.8181,55.75057141,48.74367843,3.31999993,
12.891186,4.4067,1.0786,-12.8181,55.75057141,48.74367843,3.31999993,
12.891602,4.4067,1.0786,-12.8181,55.75057141,48.74367843,3.31999993,
12.952141,-2.5176,8.5370,-14.8066,55.75057141,48.74367843,3.31999993,
12.953731,-2.5176,8.5370,-14.8066,55.75057141,48.74367843,3.31999993,
12.954303,-2.5176,8.5370,-14.8066,55.75057141,48.74367843,3.31999993,
13.014390,-2.5176,8.5370,-14.8066,55.75057141,48.74367843,3.31999993,
13.015592,-2.5176,8.5370,-14.8066,55.75057141,48.74367843,3.31999993,
13.016157,-0.9149,4.9421,4.9830,55.75057141,48.74367843,3.31999993,
13.078107,-0.9149,4.9421,4.9830,55.75057141,48.74367843,3.31999993,
13.079013,-0.9149,4.9421,4.9830,55.75057141,48.74367843,3.31999993,
13.079443,-3.8224,6.8733,7.5930,55.75057141,48.74367843,3.31999993,
13.139933,-3.8224,6.8733,7.5930,55.75057141,48.74367843,3.31999993,
13.140859,-3.8224,6.8733,7.5930,55.75057141,48.74367843,3.31999993,
13.141305,-4.1550,8.6436,8.6580,55.75057141,48.74367843,3.31999993,
13.202784,-4.1550,8.6436,8.6580,55.75057141,48.74367843,3.31999993,
13.203621,-4.1550,8.6436,8.6580,55.75057141,48.74367843,3.31999993,
13.204044,-4.9637,6.6083,-4.6705,55.75057141,48.74367843,3.31999993,
13.266750,-4.9637,6.6083,-4.6705,55.75057141,48.74367843,3.31999993,
13.267644,-4.9637,6.6083,-4.6705,55.75057141,48.74367843,3.31999993,
13.268067,-3.6118,2.9859,-19.5790,55.75057141,48.74367843,3.31999993,
13.327257,-3.6118,2.9859,-19.5790,55.75057141,48.74367843,3.31999993,
13.328355,-3.6118,2.9859,-19.5790,55.75057141,48.74367843,3.31999993,
13.328935,7.6459,-7.6607,-0.3788,55.75057141,48.74367843,3.31999993,
13.390849,7.6459,-7.6607,-0.3788,55.75057141,48.74367843,3.31999993,
13.391825,7.6459,-7.6607,-0.3788,55.75057141,48.74367843,3.31999993,
13.392280,7.7637,-5.5663,2.8090,55.75057141,48.74367843,3.31999993,
13.453219,7.7637,-5.5663,2.8090,55.75057141,48.74367843,3.31999993,
13.454153,7.7637,-5.5663,2.8090,55.75057141,48.74367843,3.31999993,
13.454612,6.9932,-2.5435,4.1115,55.75057141,48.74367843,3.31999993,
13.515722,6.9932,-2.5435,4.1115,55.75057141,48.74367843,3.31999993,
13.516603,6.9932,-2.5435,4.1115,55.75060388,48.74370334,3.05999994,
13.517331,5.4840,-3.7763,-1.1878,55.75060388,48.74370334,3.05999994,
13.578820,5.4840,-3.7763,-1.1878,55.75060388,48.74370334,3.05999994,
13.579702,5.4840,-3.7763,-1.1878,55.75060388,48.74370334,3.05999994,
13.580188,-2.9377,-0.3885,-17.1277,55.75060388,48.74370334,3.05999994,
13.641662,-2.9377,-0.3885,-17.1277,55.75060388,48.74370334,3.05999994,
13.642587,-2.9377,-0.3885,-17.1277,55.75060388,48.74370334,3.05999994,
13.643024,-6.1335,7.8146,-9.1980,55.75060388,48.74370334,3.05999994,
13.704626,-2.2549,3.3503,5.4602,55.75060388,48.74370334,3.05999994,
13.705959,-2.2549,3.3503,5.4602,55.75060388,48.74370334,3.05999994,
13.706447,-2.2549,3.3503,5.4602,55.75060388,48.74370334,3.05999994,
13.767608,-2.2549,3.3503,5.4602,55.75060388,48.74370334,3.05999994,
13.768476,-2.2549,3.3503,5.4602,55.75060388,48.74370334,3.05999994,
13.768903,-1.2257,6.6663,9.9258,55.75060388,48.74370334,3.05999994,
13.830584,-3.9576,7.9728,9.5052,55.75060388,48.74370334,3.05999994,
13.832277,-3.9576,7.9728,9.5052,55.75060388,48.74370334,3.05999994,
13.832707,-3.9576,7.9728,9.5052,55.75060388,48.74370334,3.05999994,
13.893279,-4.3727,5.9906,-7.8317,55.75060388,48.74370334,3.05999994,
13.894727,-4.3727,5.9906,-7.8317,55.75060388,48.74370334,3.05999994,
13.895170,-4.3727,5.9906,-7.8317,55.75060388,48.74370334,3.05999994,
13.955572,-4.3727,5.9906,-7.8317,55.75060388,48.74370334,3.05999994,
13.956542,-4.3727,5.9906,-7.8317,55.75060388,48.74370334,3.05999994,
13.956979,-0.8501,3.0450,-17.7297,55.75060388,48.74370334,3.05999994,
14.018759,-0.8501,3.0450,-17.7297,55.75060388,48.74370334,3.05999994,
14.019678,-0.8501,3.0450,-17.7297,55.75060388,48.74370334,3.05999994,
14.020151,8.8612,-8.0707,-1.2856,55.75060388,48.74370334,3.05999994,
14.081011,7.0682,-3.2725,1.3760,55.75060388,48.74370334,3.05999994,
14.082318,7.0682,-3.2725,1.3760,55.75060388,48.74370334,3.05999994,
14.082761,7.0682,-3.2725,1.3760,55.75060388,48.74370334,3.05999994,
14.142748,6.0331,-3.9557,5.4595,55.75060388,48.74370334,3.05999994,
14.144030,6.0331,-3.9557,5.4595,55.75060388,48.74370334,3.05999994,
14.144476,6.0331,-3.9557,5.4595,55.75060388,48.74370334,3.05999994,
14.206276,6.0331,-3.9557,5.4595,55.75060388,48.74370334,3.05999994,
14.207336,6.0331,-3.9557,5.4595,55.75060388,48.74370334,3.05999994,
14.207773,4.5263,-2.1589,-1.1388,55.75060388,48.74370334,3.05999994,
14.270734,1.3715,1.2227,-14.6077,55.75060388,48.74370334,3.05999994,
14.271994,1.3715,1.2227,-14.6077,55.75060388,48.74370334,3.05999994,
14.272436,1.3715,1.2227,-14.6077,55.75060388,48.74370334,3.05999994,
14.332701,-3.8190,6.1317,-15.4856,55.75060388,48.74370334,3.05999994,
14.334017,-3.8190,6.1317,-15.4856,55.75060388,48.74370334,3.05999994,
14.334474,-3.8190,6.1317,-15.4856,55.75060388,48.74370334,3.05999994,
14.395917,-1.7271,4.6016,2.1404,55.75060388,48.74370334,3.05999994,
14.397282,-1.7271,4.6016,2.1404,55.75060388,48.74370334,3.05999994,
14.397760,-1.7271,4.6016,2.1404,55.75060388,48.74370334,3.05999994,
14.456975,-1.7271,4.6016,2.1404,55.75060388,48.74370334,3.05999994,
14.458238,-3.7575,9.1825,8.1392,55.75060388,48.74370334,3.05999994,
14.459113,-3.7575,9.1825,8.1392,55.75060388,48.74370334,3.05999994,
14.520004,-3.7575,9.1825,8.1392,55.75060388,48.74370334,3.05999994,
14.520876,-3.7575,9.1825,8.1392,55.75063434,48.74372602,2.98000002,
14.521552,-3.7357,10.2310,9.1994,55.75063434,48.74372602,2.98000002,
14.583034,0.1517,12.3134,2.2538,55.75063434,48.74372602,2.98000002,
14.584901,0.1517,12.3134,2.2538,55.75063434,48.74372602,2.98000002,
14.585352,0.1517,12.3134,2.2538,55.75063434,48.74372602,2.98000002,
14.644292,0.1517,12.3134,2.2538,55.75063434,48.74372602,2.98000002,
14.645186,0.1517,12.3134,2.2538,55.75063434,48.74372602,2.98000002,
14.645619,-3.9685,-0.8487,-19.6739,55.75063434,48.74372602,2.98000002,
14.708922,3.8480,-11.7019,-8.9187,55.75063434,48.74372602,2.98000002,
14.710252,3.8480,-11.7019,-8.9187,55.75063434,48.74372602,2.98000002,
14.710689,3.8480,-11.7019,-8.9187,55.75063434,48.74372602,2.98000002,
14.770514,3.8480,-11.7019,-8.9187,55.75063434,48.74372602,2.98000002,
14.771671,3.8480,-11.7019,-8.9187,55.75063434,48.74372602,2.98000002,
14.772116,5.1441,-5.9092,0.8176,55.75063434,48.74372602,2.98000002,
14.833393,3.3817,-0.8115,7.8444,55.75063434,48.74372602,2.98000002,
14.834706,3.3817,-0.8115,7.8444,55.75063434,48.74372602,2.98000002,
14.835135,3.3817,-0.8115,7.8444,55.75063434,48.74372602,2.98000002,
14.897084,3.3817,-0.8115,7.8444,55.75063434,48.74372602,2.98000002,
14.898004,3.3817,-0.8115,7.8444,55.75063434,48.74372602,2.98000002,
14.898463,4.6867,-1.8472,1.9592,55.75063434,48.74372602,2.98000002,
14.958669,4.6867,-1.8472,1.9592,55.75063434,48.74372602,2.98000002,
14.959455,2.3384,0.1405,-16.6513,55.75063434,48.74372602,2.98000002,
14.960180,2.3384,0.1405,-16.6513,55.75063434,48.74372602,2.98000002,
15.022272,2.3384,0.1405,-16.6513,55.75063434,48.74372602,2.98000002,
15.023223,2.3384,0.1405,-16.6513,55.75063434,48.74372602,2.98000002,
15.023674,-2.1051,5.3082,-13.0139,55.75063434,48.74372602,2.98000002,
15.083723,-2.1051,5.3082,-13.0139,55.75063434,48.74372602,2.98000002,
15.084630,-2.1051,5.3082,-13.0139,55.75063434,48.74372602,2.98000002,
15.085063,0.0629,6.9548,5.1411,55.75063434,48.74372602,2.98000002,
15.146834,0.0629,6.9548,5.1411,55.75063434,48.74372602,2.98000002,
15.147723,0.0629,6.9548,5.1411,55.75063434,48.74372602,2.98000002,
15.148176,-0.3947,7.9429,10.1070,55.75063434,48.74372602,2.98000002,
15.209177,-2.4499,7.4266,8.0233,55.75063434,48.74372602,2.98000002,
15.210520,-2.4499,7.4266,8.0233,55.75063434,48.74372602,2.98000002,
15.210959,-2.4499,7.4266,8.0233,55.75063434,48.74372602,2.98000002,
15.271311,-2.4499,7.4266,8.0233,55.75063434,48.74372602,2.98000002,
15.272197,-2.4499,7.4266,8.0233,55.75063434,48.74372602,2.98000002,
15.272639,-3.4894,6.8627,-9.3514,55.75063434,48.74372602,2.98000002,
15.334225,-0.0206,3.4186,-16.9425,55.75063434,48.74372602,2.98000002,
15.335653,-0.0206,3.4186,-16.9425,55.75063434,48.74372602,2.98000002,
15.336095,-0.0206,3.4186,-16.9425,55.75063434,48.74372602,2.98000002,
15.396610,-0.0206,3.4186,-16.9425,55.75063434,48.74372602,2.98000002,
15.397411,-0.0206,3.4186,-16.9425,55.75063434,48.74372602,2.98000002,
15.397861,4.7322,-5.6529,0.3553,55.75063434,48.74372602,2.98000002,
15.460122,4.7322,-5.6529,0.3553,55.75063434,48.74372602,2.98000002,
15.461008,4.4696,-10.6509,4.7019,55.75063434,48.74372602,2.98000002,
15.462063,4.4696,-10.6509,4.7019,55.75063434,48.74372602,2.98000002,
15.522450,4.4696,-10.6509,4.7019,55.75063434,48.74372602,2.98000002,
15.523599,4.4696,-10.6509,4.7019,55.75066677,48.74374800,3.61999989,
15.524426,3.9340,-3.5347,4.9626,55.75066677,48.74374800,3.61999989,
15.585810,3.9340,-3.5347,4.9626,55.75066677,48.74374800,3.61999989,
15.586698,3.9340,-3.5347,4.9626,55.75066677,48.74374800,3.61999989,
15.587130,8.0413,-0.3759,1.1557,55.75066677,48.74374800,3.61999989,
15.647827,8.0413,-0.3759,1.1557,55.75066677,48.74374800,3.61999989,
15.648729,8.0413,-0.3759,1.1557,55.75066677,48.74374800,3.61999989,
15.649177,4.5379,1.1574,-14.5206,55.75066677,48.74374800,3.61999989,
15.711186,4.5379,1.1574,-14.5206,55.75066677,48.74374800,3.61999989,
15.712737,4.5379,1.1574,-14.5206,55.75066677,48.74374800,3.61999989,
15.713445,-1.9327,5.2139,-14.4319,55.75066677,48.74374800,3.61999989,
15.774275,-1.9327,5.2139,-14.4319,55.75066677,48.74374800,3.61999989,
15.775207,-1.9327,5.2139,-14.4319,55.75066677,48.74374800,3.61999989,
15.775679,-1.6650,6.9783,2.4893,55.75066677,48.74374800,3.61999989,
15.836240,-1.6650,6.9783,2.4893,55.75066677,48.74374800,3.61999989,
15.837216,-1.6650,6.9783,2.4893,55.75066677,48.74374800,3.61999989,
15.837663,-4.3757,7.0823,7.0795,55.75066677,48.74374800,3.61999989,
15.900266,-4.3757,7.0823,7.0795,55.75066677,48.74374800,3.61999989,
15.901199,-4.3757,7.0823,7.0795,55.75066677,48.74374800,3.61999989,
15.902052,-4.6331,8.9534,10.6193,55.75066677,48.74374800,3.61999989,
15.960800,-4.6331,8.9534,10.6193,55.75066677,48.74374800,3.61999989,
15.961550,-4.6331,8.9534,10.6193,55.75066677,48.74374800,3.61999989,
15.961978,-3.7540,8.8030,3.3980,55.75066677,48.74374800,3.61999989,
16.023473,-3.7540,8.8030,3.3980,55.75066677,48.74374800,3.61999989,
16.024362,-3.7540,8.8030,3.3980,55.75066677,48.74374800,3.61999989,
16.024828,-1.5597,4.3634,-22.3448,55.75066677,48.74374800,3.61999989,
16.087157,6.9824,-6.4264,-10.6333,55.75066677,48.74374800,3.61999989,
16.088347,6.9824,-6.4264,-10.6333,55.75066677,48.74374800,3.61999989,
16.088771,6.9824,-6.4264,-10.6333,55.75066677,48.74374800,3.61999989,
16.150586,6.9824,-6.4264,-10.6333,55.75066677,48.74374800,3.61999989,
16.151510,6.9824,-6.4264,-10.6333,55.75066677,48.74374800,3.61999989,
16.151947,7.6861,-9.5598,1.2357,55.75066677,48.74374800,3.61999989,
16.213554,7.6861,-9.5598,1.2357,55.75066677,48.74374800,3.61999989,
16.214489,7.6861,-9.5598,1.2357,55.75066677,48.74374800,3.61999989,
16.214933,4.3403,-6.2820,5.8895,55.75066677,48.74374800,3.61999989,
16.274698,4.3403,-6.2820,5.8895,55.75066677,48.74374800,3.61999989,
16.275655,4.3403,-6.2820,5.8895,55.75066677,48.74374800,3.61999989,
16.276089,8.6840,-1.4992,3.4248,55.75066677,48.74374800,3.61999989,
16.336759,8.6840,-1.4992,3.4248,55.75066677,48.74374800,3.61999989,
16.337733,8.6840,-1.4992,3.4248,55.75066677,48.74374800,3.61999989,
16.338174,4.1583,1.0900,-14.9300,55.75066677,48.74374800,3.61999989,
16.402117,-4.5399,8.1544,-10.2382,55.75066677,48.74374800,3.61999989,
16.403736,-4.5399,8.1544,-10.2382,55.75066677,48.74374800,3.61999989,
16.404223,-4.5399,8.1544,-10.2382,55.75066677,48.74374800,3.61999989,
16.463671,-4.5399,8.1544,-10.2382,55.75066677,48.74374800,3.61999989,
16.464580,-4.5399,8.1544,-10.2382,55.75066677,48.74374800,3.61999989,
16.465015,-4.3652,7.5568,3.5438,55.75066677,48.74374800,3.61999989,
16.525162,-4.3652,7.5568,3.5438,55.75066677,48.74374800,3.61999989,
16.526106,-4.3652,7.5568,3.5438,55.75069055,48.74376635,1.73000002,
16.526949,-3.9471,6.9710,7.2578,55.75069055,48.74376635,1.73000002,
16.588036,-3.9471,6.9710,7.2578,55.75069055,48.74376635,1.73000002,
16.588902,-3.9471,6.9710,7.2578,55.75069055,48.74376635,1.73000002,
16.589519,-3.3220,6.1425,3.1579,55.75069055,48.74376635,1.73000002,
16.651791,-3.3220,6.1425,3.1579,55.75069055,48.74376635,1.73000002,
16.652693,-3.3220,6.1425,3.1579,55.75069055,48.74376635,1.73000002,
16.653217,-3.6215,3.4978,-10.0659,55.75069055,48.74376635,1.73000002,
16.713683,-3.6215,3.4978,-10.0659,55.75069055,48.74376635,1.73000002,
16.715017,-3.6215,3.4978,-10.0659,55.75069055,48.74376635,1.73000002,
16.715826,2.0018,0.2234,-8.2196,55.75069055,48.74376635,1.73000002,
16.776922,2.0018,0.2234,-8.2196,55.75069055,48.74376635,1.73000002,
16.779124,2.0018,0.2234,-8.2196,55.75069055,48.74376635,1.73000002,
16.780848,7.2510,-7.9163,2.4092,55.75069055,48.74376635,1.73000002,
16.839005,7.2510,-7.9163,2.4092,55.75069055,48.74376635,1.73000002,
16.839919,7.2510,-7.9163,2.4092,55.75069055,48.74376635,1.73000002,
16.840368,3.8783,-1.9783,6.5565,55.75069055,48.74376635,1.73000002,
16.901994,4.5695,1.5107,6.8241,55.75069055,48.74376635,1.73000002,
16.903324,4.5695,1.5107,6.8241,55.75069055,48.74376635,1.73000002,
16.903756,4.5695,1.5107,6.8241,55.75069055,48.74376635,1.73000002,
16.964298,4.5695,1.5107,6.8241,55.75069055,48.74376635,1.73000002,
16.965438,4.5695,1.5107,6.8241,55.75069055,48.74376635,1.73000002,
16.965894,4.8768,-3.3224,0.2189,55.75069055,48.74376635,1.73000002,
17.028631,4.8768,-3.3224,0.2189,55.75069055,48.74376635,1.73000002,
17.029546,4.8768,-3.3224,0.2189,55.75069055,48.74376635,1.73000002,
17.030136,0.3025,-7.6327,-16.9080,55.75069055,48.74376635,1.73000002,
17.089921,0.3025,-7.6327,-16.9080,55.75069055,48.74376635,1.73000002,
17.091140,0.3025,-7.6327,-16.9080,55.75069055,48.74376635,1.73000002,
17.091720,-2.4537,1.9508,-16.1392,55.75069055,48.74376635,1.73000002,
17.154959,-2.4537,1.9508,-16.1392,55.75069055,48.74376635,1.73000002,
17.155959,-2.4537,1.9508,-16.1392,55.75069055,48.74376635,1.73000002,
17.156440,0.7569,7.5331,2.4722,55.75069055,48.74376635,1.73000002,
17.215151,0.7569,7.5331,2.4722,55.75069055,48.74376635,1.73000002,
17.216081,0.7569,7.5331,2.4722,55.75069055,48.74376635,1.73000002,
17.216582,-0.2672,11.1264,6.8743,55.75069055,48.74376635,1.73000002,
17.279026,-0.2672,11.1264,6.8743,55.75069055,48.74376635,1.73000002,
17.280041,-0.2672,11.1264,6.8743,55.75069055,48.74376635,1.73000002,
17.280510,-1.9050,10.5563,9.9789,55.75069055,48.74376635,1.73000002,
17.343305,-1.9050,10.5563,9.9789,55.75069055,48.74376635,1.73000002,
17.344339,-1.9050,10.5563,9.9789,55.75069055,48.74376635,1.73000002,
17.344791,-6.0890,7.6569,2.2936,55.75069055,48.74376635,1.73000002,
17.405161,-6.0890,7.6569,2.2936,55.75069055,48.74376635,1.73000002,
17.406040,-6.0890,7.6569,2.2936,55.75069055,48.74376635,1.73000002,
17.406512,-7.7680,0.8066,-22.2466,55.75069055,48.74376635,1.73000002,
17.465333,-7.7680,0.8066,-22.2466,55.75069055,48.74376635,1.73000002,
17.466455,-7.7680,0.8066,-22.2466,55.75069055,48.74376635,1.73000002,
17.467128,7.5114,-7.2200,-6.0386,55.75069055,48.74376635,1.73000002,
17.528532,7.5114,-7.2200,-6.0386,55.75069055,48.74376635,1.73000002,
17.529304,7.5114,-7.2200,-6.0386,55.75071232,48.74378802,2.92000008,
17.530046,8.4573,-6.6550,0.7512,55.75071232,48.74378802,2.92000008,
17.591044,8.4573,-6.6550,0.7512,55.75071232,48.74378802,2.92000008,
17.591992,5.6886,-4.7792,3.3536,55.75071232,48.74378802,2.92000008,
17.592807,5.6886,-4.7792,3.3536,55.75071232,48.74378802,2.92000008,
17.653951,4.2335,-3.9787,-2.5872,55.75071232,48.74378802,2.92000008,
17.655152,4.2335,-3.9787,-2.5872,55.75071232,48.74378802,2.92000008,
17.655577,4.2335,-3.9787,-2.5872,55.75071232,48.74378802,2.92000008,
17.717066,4.2335,-3.9787,-2.5872,55.75071232,48.74378802,2.92000008,
17.717957,4.2335,-3.9787,-2.5872,55.75071232,48.74378802,2.92000008,
17.718398,-0.9505,0.0698,-15.6245,55.75071232,48.74378802,2.92000008,
17.780127,-0.9505,0.0698,-15.6245,55.75071232,48.74378802,2.92000008,
17.781016,-0.9505,0.0698,-15.6245,55.75071232,48.74378802,2.92000008,
17.781482,-4.0376,7.9073,-10.6611,55.75071232,48.74378802,2.92000008,
17.842946,-0.8547,4.1938,4.0749,55.75071232,48.74378802,2.92000008,
17.844335,-0.8547,4.1938,4.0749,55.75071232,48.74378802,2.92000008,
17.844814,-0.8547,4.1938,4.0749,55.75071232,48.74378802,2.92000008,
17.907174,-2.2295,4.3755,7.0087,55.75071232,48.74378802,2.92000008,
17.908475,-2.2295,4.3755,7.0087,55.75071232,48.74378802,2.92000008,
17.908924,-2.2295,4.3755,7.0087,55.75071232,48.74378802,2.92000008,
17.968783,-3.1909,6.4423,8.3030,55.75071232,48.74378802,2.92000008,
17.970159,-3.1909,6.4423,8.3030,55.75071232,48.74378802,2.92000008,
17.970605,-3.1909,6.4423,8.3030,55.75071232,48.74378802,2.92000008,
18.030454,-2.8452,6.6217,-5.1162,55.75071232,48.74378802,2.92000008,
18.031745,-2.8452,6.6217,-5.1162,55.75071232,48.74378802,2.92000008,
18.032208,-2.8452,6.6217,-5.1162,55.75071232,48.74378802,2.92000008,
18.093293,0.5549,-0.6465,-15.5445,55.75071232,48.74378802,2.92000008,
18.094600,0.5549,-0.6465,-15.5445,55.75071232,48.74378802,2.92000008,
18.095066,0.5549,-0.6465,-15.5445,55.75071232,48.74378802,2.92000008,
18.155116,5.0912,-4.7260,2.1343,55.75071232,48.74378802,2.92000008,
18.156232,5.0912,-4.7260,2.1343,55.75071232,48.74378802,2.92000008,
18.156727,5.0912,-4.7260,2.1343,55.75071232,48.74378802,2.92000008,
18.218070,5.0912,-4.7260,2.1343,55.75071232,48.74378802,2.92000008,
18.218856,5.0912,-4.7260,2.1343,55.75071232,48.74378802,2.92000008,
18.219290,3.8999,-5.7939,6.5207,55.75071232,48.74378802,2.92000008,
18.282346,3.8999,-5.7939,6.5207,55.75071232,48.74378802,2.92000008,
18.283189,3.8999,-5.7939,6.5207,55.75071232,48.74378802,2.92000008,
18.283626,2.1199,2.0590,3.1236,55.75071232,48.74378802,2.92000008,
18.343699,2.1199,2.0590,3.1236,55.75071232,48.74378802,2.92000008,
18.344649,2.1199,2.0590,3.1236,55.75071232,48.74378802,2.92000008,
18.345333,3.6727,3.5478,-1.0181,55.75071232,48.74378802,2.92000008,
18.405468,3.6727,3.5478,-1.0181,55.75071232,48.74378802,2.92000008,
18.406312,3.6727,3.5478,-1.0181,55.75071232,48.74378802,2.92000008,
18.406809,1.0934,1.9046,-14.5310,55.75071232,48.74378802,2.92000008,
18.469713,1.0934,1.9046,-14.5310,55.75071232,48.74378802,2.92000008,
18.470555,1.0934,1.9046,-14.5310,55.75071232,48.74378802,2.92000008,
18.471008,1.0606,1.7245,1.4451,55.75071232,48.74378802,2.92000008,
18.531448,1.0606,1.7245,1.4451,55.75071232,48.74378802,2.92000008,
18.532260,1.0606,1.7245,1.4451,55.75073563,48.74381264,2.43000007,
18.532940,-3.4929,1.7795,4.7592,55.75073563,48.74381264,2.43000007,
18.594366,-3.4929,1.7795,4.7592,55.75073563,48.74381264,2.43000007,
18.595178,-3.4929,1.7795,4.7592,55.75073563,48.74381264,2.43000007,
18.595617,-3.8250,4.4111,8.8969,55.75073563,48.74381264,2.43000007,
18.656173,-3.8250,4.4111,8.8969,55.75073563,48.74381264,2.43000007,
18.657041,-3.8250,4.4111,8.8969,55.75073563,48.74381264,2.43000007,
18.657487,-5.2523,6.0847,8.2742,55.75073563,48.74381264,2.43000007,
18.721004,-5.2523,6.0847,8.2742,55.75073563,48.74381264,2.43000007,
18.721938,-5.2523,6.0847,8.2742,55.75073563,48.74381264,2.43000007,
18.722422,-3.6091,2.6909,-9.6682,55.75073563,48.74381264,2.43000007,
18.782755,-3.6091,2.6909,-9.6682,55.75073563,48.74381264,2.43000007,
18.783736,-3.6091,2.6909,-9.6682,55.75073563,48.74381264,2.43000007,
18.784204,0.2654,4.2581,-22.2100,55.75073563,48.74381264,2.43000007,
18.845608,8.1304,-6.7460,-0.1226,55.75073563,48.74381264,2.43000007,
18.846856,8.1304,-6.7460,-0.1226,55.75073563,48.74381264,2.43000007,
18.847292,8.1304,-6.7460,-0.1226,55.75073563,48.74381264,2.43000007,
18.908484,8.1304,-6.7460,-0.1226,55.75073563,48.74381264,2.43000007,
18.909341,8.1304,-6.7460,-0.1226,55.75073563,48.74381264,2.43000007,
18.909819,6.3322,-6.2841,7.8584,55.75073563,48.74381264,2.43000007,
18.970045,6.3322,-6.2841,7.8584,55.75073563,48.74381264,2.43000007,
18.971110,6.3322,-6.2841,7.8584,55.75073563,48.74381264,2.43000007,
18.971548,2.7617,-2.0818,5.9761,55.75073563,48.74381264,2.43000007,
19.034162,2.7617,-2.0818,5.9761,55.75073563,48.74381264,2.43000007,
19.035197,2.7617,-2.0818,5.9761,55.75073563,48.74381264,2.43000007,
19.035800,3.7462,-3.1154,-1.4162,55.75073563,48.74381264,2.43000007,
19.096916,3.7462,-3.1154,-1.4162,55.75073563,48.74381264,2.43000007,
19.097840,3.7462,-3.1154,-1.4162,55.75073563,48.74381264,2.43000007,
19.098274,3.4255,-1.0156,-15.6271,55.75073563,48.74381264,2.43000007,
19.159700,3.4255,-1.0156,-15.6271,55.75073563,48.74381264,2.43000007,
19.160641,3.4255,-1.0156,-15.6271,55.75073563,48.74381264,2.43000007,
19.161065,0.5784,3.6179,-9.4722,55.75073563,48.74381264,2.43000007,
19.221283,0.5784,3.6179,-9.4722,55.75073563,48.74381264,2.43000007,
19.222233,0.5784,3.6179,-9.4722,55.75073563,48.74381264,2.43000007,
19.222682,-2.4831,5.6122,3.1982,55.75073563,48.74381264,2.43000007,
19.284593,-2.4831,5.6122,3.1982,55.75073563,48.74381264,2.43000007,
19.285493,-2.4831,5.6122,3.1982,55.75073563,48.74381264,2.43000007,
19.285937,-3.5882,9.0970,9.9910,55.75073563,48.74381264,2.43000007,
19.348287,-2.2702,10.4402,7.0370,55.75073563,48.74381264,2.43000007,
19.349537,-2.2702,10.4402,7.0370,55.75073563,48.74381264,2.43000007,
19.350024,-2.2702,10.4402,7.0370,55.75073563,48.74381264,2.43000007,
19.409158,-2.2702,10.4402,7.0370,55.75073563,48.74381264,2.43000007,
19.410241,-2.2702,10.4402,7.0370,55.75073563,48.74381264,2.43000007,
19.410726,-0.6681,3.9644,-16.1943,55.75073563,48.74381264,2.43000007,
19.473976,-0.6681,3.9644,-16.1943,55.75073563,48.74381264,2.43000007,
19.474926,-0.6681,3.9644,-16.1943,55.75073563,48.74381264,2.43000007,
19.475372,1.4615,-2.3713,-18.2934,55.75073563,48.74381264,2.43000007,
19.534817,1.4615,-2.3713,-18.2934,55.75073563,48.74381264,2.43000007,
19.535694,1.4615,-2.3713,-18.2934,55.75075817,48.74383627,2.83999991,
19.536475,7.4246,-6.0582,8.4002,55.75075817,48.74383627,2.83999991,
19.597761,4.4392,-3.2117,8.4277,55.75075817,48.74383627,2.83999991,
19.598876,4.4392,-3.2117,8.4277,55.75075817,48.74383627,2.83999991,
19.599311,4.4392,-3.2117,8.4277,55.75075817,48.74383627,2.83999991,
19.660930,4.0801,1.0133,6.3047,55.75075817,48.74383627,2.83999991,
19.662197,4.0801,1.0133,6.3047,55.75075817,48.74383627,2.83999991,
19.662623,4.0801,1.0133,6.3047,55.75075817,48.74383627,2.83999991,
19.725094,5.1351,-0.2495,-3.9893,55.75075817,48.74383627,2.83999991,
19.726782,5.1351,-0.2495,-3.9893,55.75075817,48.74383627,2.83999991,
19.727255,5.1351,-0.2495,-3.9893,55.75075817,48.74383627,2.83999991,
19.784943,5.1351,-0.2495,-3.9893,55.75075817,48.74383627,2.83999991,
19.785762,5.1351,-0.2495,-3.9893,55.75075817,48.74383627,2.83999991,
19.786214,-0.9832,-0.1607,-19.6374,55.75075817,48.74383627,2.83999991,
19.848306,-0.9832,-0.1607,-19.6374,55.75075817,48.74383627,2.83999991,
19.849237,-0.9832,-0.1607,-19.6374,55.75075817,48.74383627,2.83999991,
19.849687,-2.5019,6.0462,-6.0522,55.75075817,48.74383627,2.83999991,
19.911280,-2.5019,6.0462,-6.0522,55.75075817,48.74383627,2.83999991,
19.912195,-2.5019,6.0462,-6.0522,55.75075817,48.74383627,2.83999991,
19.912703,-2.2057,4.2396,4.9399,55.75075817,48.74383627,2.83999991,
19.973623,-2.2057,4.2396,4.9399,55.75075817,48.74383627,2.83999991,
19.974543,-2.2057,4.2396,4.9399,55.75075817,48.74383627,2.83999991,
19.974988,-2.9907,5.7715,5.5194,55.75075817,48.74383627,2.83999991,
20.036509,-3.8403,5.8302,3.2450,55.75075817,48.74383627,2.83999991,
20.037688,-3.8403,5.8302,3.2450,55.75075817,48.74383627,2.83999991,
20.038111,-3.8403,5.8302,3.2450,55.75075817,48.74383627,2.83999991,
20.100760,-3.8403,5.8302,3.2450,55.75075817,48.74383627,2.83999991,
20.101841,-3.8403,5.8302,3.2450,55.75075817,48.74383627,2.83999991,
20.102279,-1.4052,3.3027,-3.8791,55.75075817,48.74383627,2.83999991,
20.163718,1.2083,2.7787,-12.4160,55.75075817,48.74383627,2.83999991,
20.165025,1.2083,2.7787,-12.4160,55.75075817,48.74383627,2.83999991,
20.165448,1.2083,2.7787,-12.4160,55.75075817,48.74383627,2.83999991,
20.225079,7.7676,-5.1614,-1.6700,55.75075817,48.74383627,2.83999991,
20.226514,7.7676,-5.1614,-1.6700,55.75075817,48.74383627,2.83999991,
20.226969,7.7676,-5.1614,-1.6700,55.75075817,48.74383627,2.83999991,
20.288075,6.2005,-4.0253,6.6330,55.75075817,48.74383627,2.83999991,
20.289450,6.2005,-4.0253,6.6330,55.75075817,48.74383627,2.83999991,
20.289906,6.2005,-4.0253,6.6330,55.75075817,48.74383627,2.83999991,
20.350161,6.4162,0.9966,6.2455,55.75075817,48.74383627,2.83999991,
20.351604,6.4162,0.9966,6.2455,55.75075817,48.74383627,2.83999991,
20.352027,6.4162,0.9966,6.2455,55.75075817,48.74383627,2.83999991,
20.413317,4.4761,-2.0574,-4.3158,55.75075817,48.74383627,2.83999991,
20.414739,4.4761,-2.0574,-4.3158,55.75075817,48.74383627,2.83999991,
20.415187,4.4761,-2.0574,-4.3158,55.75075817,48.74383627,2.83999991,
20.475223,4.4761,-2.0574,-4.3158,55.75075817,48.74383627,2.83999991,
20.476300,4.4761,-2.0574,-4.3158,55.75075817,48.74383627,2.83999991,
20.476796,-5.3170,-1.0799,-13.3361,55.75075817,48.74383627,2.83999991,
20.538439,-5.3170,-1.0799,-13.3361,55.75075817,48.74383627,2.83999991,
20.539319,-5.3170,-1.0799,-13.3361,55.75077962,48.74385939,2.51999998,
20.540087,-5.0937,-2.5076,-10.3886,55.75077962,48.74385939,2.51999998,
20.601720,-5.0937,-2.5076,-10.3886,55.75077962,48.74385939,2.51999998,
20.603007,-5.0937,-2.5076,-10.3886,55.75077962,48.74385939,2.51999998,
20.603641,1.3284,3.8103,3.1242,55.75077962,48.74385939,2.51999998,
20.666251,0.5571,7.3747,6.3955,55.75077962,48.74385939,2.51999998,
20.667539,0.5571,7.3747,6.3955,55.75077962,48.74385939,2.51999998,
20.667971,0.5571,7.3747,6.3955,55.75077962,48.74385939,2.51999998,
20.725636,2.0801,8.9424,8.9874,55.75077962,48.74385939,2.51999998,
20.726908,2.0801,8.9424,8.9874,55.75077962,48.74385939,2.51999998,
20.727329,2.0801,8.9424,8.9874,55.75077962,48.74385939,2.51999998,
20.789199,2.0801,8.9424,8.9874,55.75077962,48.74385939,2.51999998,
20.790231,2.0801,8.9424,8.9874,55.75077962,48.74385939,2.51999998,
20.790687,-2.9383,7.0234,-5.0473,55.75077962,48.74385939,2.51999998,
20.852741,-4.6674,-1.9274,-15.2108,55.75077962,48.74385939,2.51999998,
20.854069,-4.6674,-1.9274,-15.2108,55.75077962,48.74385939,2.51999998,
20.854507,-4.6674,-1.9274,-15.2108,55.75077962,48.74385939,2.51999998,
20.916283,-4.6674,-1.9274,-15.2108,55.75077962,48.74385939,2.51999998,
20.917254,-4.6674,-1.9274,-15.2108,55.75077962,48.74385939,2.51999998,
20.917712,1.1058,-1.6715,-3.9111,55.75077962,48.74385939,2.51999998,
20.977202,1.1058,-1.6715,-3.9111,55.75077962,48.74385939,2.51999998,
20.978088,1.1058,-1.6715,-3.9111,55.75077962,48.74385939,2.51999998,
20.978498,6.4231,-6.1593,4.7913,55.75077962,48.74385939,2.51999998,
21.039258,6.4231,-6.1593,4.7913,55.75077962,48.74385939,2.51999998,
21.040240,6.4231,-6.1593,4.7913,55.75077962,48.74385939,2.51999998,
21.040689,5.1065,-0.2031,4.2510,55.75077962,48.74385939,2.51999998,
21.102633,8.4032,1.5744,8.8921,55.75077962,48.74385939,2.51999998,
21.103913,8.4032,1.5744,8.8921,55.75077962,48.74385939,2.51999998,
21.104351,8.4032,1.5744,8.8921,55.75077962,48.74385939,2.51999998,
21.165171,8.4032,1.5744,8.8921,55.75077962,48.74385939,2.51999998,
21.166666,8.4032,1.5744,8.8921,55.75077962,48.74385939,2.51999998,
21.167512,4.3404,2.7067,-2.8405,55.75077962,48.74385939,2.51999998,
21.227421,4.3404,2.7067,-2.8405,55.75077962,48.74385939,2.51999998,
21.228355,4.3404,2.7067,-2.8405,55.75077962,48.74385939,2.51999998,
21.228800,-13.5450,-0.3718,-25.9295,55.75077962,48.74385939,2.51999998,
21.292648,-4.4724,3.4224,-5.0938,55.75077962,48.74385939,2.51999998,
21.294167,-4.4724,3.4224,-5.0938,55.75077962,48.74385939,2.51999998,
21.294595,-4.4724,3.4224,-5.0938,55.75077962,48.74385939,2.51999998,
21.352769,-4.4724,3.4224,-5.0938,55.75077962,48.74385939,2.51999998,
21.353669,-4.4724,3.4224,-5.0938,55.75077962,48.74385939,2.51999998,
21.354144,-0.5389,3.2425,2.2935,55.75077962,48.74385939,2.51999998,
21.416149,1.2079,6.2074,10.1522,55.75077962,48.74385939,2.51999998,
21.417728,1.2079,6.2074,10.1522,55.75077962,48.74385939,2.51999998,
21.418154,1.2079,6.2074,10.1522,55.75077962,48.74385939,2.51999998,
21.479780,1.4239,6.6999,8.4248,55.75077962,48.74385939,2.51999998,
21.481200,1.4239,6.6999,8.4248,55.75077962,48.74385939,2.51999998,
21.481626,1.4239,6.6999,8.4248,55.75077962,48.74385939,2.51999998,
21.540857,0.4538,3.7538,-5.3266,55.75077962,48.74385939,2.51999998,
21.542146,0.4538,3.7538,-5.3266,55.75080128,48.74388539,3.18000007,
21.542737,0.4538,3.7538,-5.3266,55.75080128,48.74388539,3.18000007,
21.605806,0.5411,-2.8527,-13.0456,55.75080128,48.74388539,3.18000007,
21.607502,0.5411,-2.8527,-13.0456,55.75080128,48.74388539,3.18000007,
21.608085,0.5411,-2.8527,-13.0456,55.75080128,48.74388539,3.18000007,
21.666629,0.5411,-2.8527,-13.0456,55.75080128,48.74388539,3.18000007,
21.667730,0.5411,-2.8527,-13.0456,55.75080128,48.74388539,3.18000007,
21.668297,4.9721,-3.5573,0.0052,55.75080128,48.74388539,3.18000007,
21.729091,3.1987,-4.4057,-0.0427,55.75080128,48.74388539,3.18000007,
21.730236,3.1987,-4.4057,-0.0427,55.75080128,48.74388539,3.18000007,
21.730690,3.1987,-4.4057,-0.0427,55.75080128,48.74388539,3.18000007,
21.791845,2.6277,-0.7473,5.5699,55.75080128,48.74388539,3.18000007,
21.793130,2.6277,-0.7473,5.5699,55.75080128,48.74388539,3.18000007,
21.793562,2.6277,-0.7473,5.5699,55.75080128,48.74388539,3.18000007,
21.853842,2.6277,-0.7473,5.5699,55.75080128,48.74388539,3.18000007,
21.854709,2.6277,-0.7473,5.5699,55.75080128,48.74388539,3.18000007,
21.855157,4.7667,3.2224,3.3975,55.75080128,48.74388539,3.18000007,
21.916303,4.7667,3.2224,3.3975,55.75080128,48.74388539,3.18000007,
21.917249,4.7667,3.2224,3.3975,55.75080128,48.74388539,3.18000007,
21.917708,5.2154,0.2882,-7.5384,55.75080128,48.74388539,3.18000007,
21.979192,5.2154,0.2882,-7.5384,55.75080128,48.74388539,3.18000007,
21.980050,5.2154,0.2882,-7.5384,55.75080128,48.74388539,3.18000007,
21.980472,3.3989,-2.1028,-12.1657,55.75080128,48.74388539,3.18000007,
22.042214,-0.6908,-3.4640,-9.9148,55.75080128,48.74388539,3.18000007,
22.043574,-0.6908,-3.4640,-9.9148,55.75080128,48.74388539,3.18000007,
22.044071,-0.6908,-3.4640,-9.9148,55.75080128,48.74388539,3.18000007,
22.105623,-0.6908,-3.4640,-9.9148,55.75080128,48.74388539,3.18000007,
22.106703,-0.6908,-3.4640,-9.9148,55.75080128,48.74388539,3.18000007,
22.107178,-1.5587,-3.3897,-1.4379,55.75080128,48.74388539,3.18000007,
22.167644,-1.5587,-3.3897,-1.4379,55.75080128,48.74388539,3.18000007,
22.168571,-1.5587,-3.3897,-1.4379,55.75080128,48.74388539,3.18000007,
22.169164,2.2840,4.3002,5.0709,55.75080128,48.74388539,3.18000007,
22.230123,4.1698,6.7878,6.7243,55.75080128,48.74388539,3.18000007,
22.231213,4.1698,6.7878,6.7243,55.75080128,48.74388539,3.18000007,
22.231641,4.1698,6.7878,6.7243,55.75080128,48.74388539,3.18000007,
22.293343,4.1698,6.7878,6.7243,55.75080128,48.74388539,3.18000007,
22.294715,4.1698,6.7878,6.7243,55.75080128,48.74388539,3.18000007,
22.295560,3.3922,4.8513,2.9047,55.75080128,48.74388539,3.18000007,
22.355993,3.3922,4.8513,2.9047,55.75080128,48.74388539,3.18000007,
22.356943,3.3922,4.8513,2.9047,55.75080128,48.74388539,3.18000007,
22.357396,0.3475,1.1598,-5.9508,55.75080128,48.74388539,3.18000007,
22.419520,0.7998,-2.4490,-8.6768,55.75080128,48.74388539,3.18000007,
22.420885,0.7998,-2.4490,-8.6768,55.75080128,48.74388539,3.18000007,
22.421337,0.7998,-2.4490,-8.6768,55.75080128,48.74388539,3.18000007,
22.481822,0.7998,-2.4490,-8.6768,55.75080128,48.74388539,3.18000007,
22.482749,0.7998,-2.4490,-8.6768,55.75080128,48.74388539,3.18000007,
22.483238,4.7922,-7.9637,-5.8260,55.75080128,48.74388539,3.18000007,
22.543626,4.7922,-7.9637,-5.8260,55.75080128,48.74388539,3.18000007,
22.544419,4.7922,-7.9637,-5.8260,55.75081905,48.74390430,1.75000000,
22.545144,6.5336,-8.4306,0.6566,55.75081905,48.74390430,1.75000000,
22.607759,6.5336,-8.4306,0.6566,55.75081905,48.74390430,1.75000000,
22.608559,6.5336,-8.4306,0.6566,55.75081905,48.74390430,1.75000000,
22.608989,6.2927,-0.5733,2.9430,55.75081905,48.74390430,1.75000000,
22.668953,6.2927,-0.5733,2.9430,55.75081905,48.74390430,1.75000000,
22.669916,6.2927,-0.5733,2.9430,55.75081905,48.74390430,1.75000000,
22.670351,4.2437,-1.1306,-0.5944,55.75081905,48.74390430,1.75000000,
22.731515,4.2437,-1.1306,-0.5944,55.75081905,48.74390430,1.75000000,
22.732460,4.2437,-1.1306,-0.5944,55.75081905,48.74390430,1.75000000,
22.732911,-0.5523,-3.4417,-14.0819,55.75081905,48.74390430,1.75000000,
22.795575,-1.7355,-1.0931,-10.6673,55.75081905,48.74390430,1.75000000,
22.796959,-1.7355,-1.0931,-10.6673,55.75081905,48.74390430,1.75000000,
22.797395,-1.7355,-1.0931,-10.6673,55.75081905,48.74390430,1.75000000,
22.857835,-1.7355,-1.0931,-10.6673,55.75081905,48.74390430,1.75000000,
22.858765,-1.7355,-1.0931,-10.6673,55.75081905,48.74390430,1.75000000,
22.859224,0.1550,3.6067,-0.5236,55.75081905,48.74390430,1.75000000,
22.920592,0.1550,3.6067,-0.5236,55.75081905,48.74390430,1.75000000,
22.921459,0.1550,3.6067,-0.5236,55.75081905,48.74390430,1.75000000,
22.921896,3.0975,6.6337,5.1208,55.75081905,48.74390430,1.75000000,
22.983033,3.0975,6.6337,5.1208,55.75081905,48.74390430,1.75000000,
22.983971,3.0975,6.6337,5.1208,55.75081905,48.74390430,1.75000000,
22.984412,3.3290,5.9546,2.1509,55.75081905,48.74390430,1.75000000,
23.046682,2.1688,2.3598,1.8705,55.75081905,48.74390430,1.75000000,
23.047900,2.1688,2.3598,1.8705,55.75081905,48.74390430,1.75000000,
23.048328,2.1688,2.3598,1.8705,55.75081905,48.74390430,1.75000000,
23.108495,2.1688,2.3598,1.8705,55.75081905,48.74390430,1.75000000,
23.109386,2.1688,2.3598,1.8705,55.75081905,48.74390430,1.75000000,
23.109892,0.7726,-0.3484,-0.3921,55.75081905,48.74390430,1.75000000,
23.171055,0.7726,-0.3484,-0.3921,55.75081905,48.74390430,1.75000000,
23.171949,0.7726,-0.3484,-0.3921,55.75081905,48.74390430,1.75000000,
23.172396,-3.0033,-0.6078,-8.7739,55.75081905,48.74390430,1.75000000,
23.233563,-3.0033,-0.6078,-8.7739,55.75081905,48.74390430,1.75000000,
23.234897,-3.0033,-0.6078,-8.7739,55.75081905,48.74390430,1.75000000,
23.235355,1.1594,-7.4943,-4.6894,55.75081905,48.74390430,1.75000000,
23.296347,1.1594,-7.4943,-4.6894,55.75081905,48.74390430,1.75000000,
23.297324,1.1594,-7.4943,-4.6894,55.75081905,48.74390430,1.75000000,
23.297770,7.0198,-6.1396,1.2159,55.75081905,48.74390430,1.75000000,
23.358904,7.0198,-6.1396,1.2159,55.75081905,48.74390430,1.75000000,
23.359817,7.0198,-6.1396,1.2159,55.75081905,48.74390430,1.75000000,
23.360256,8.9422,-1.5774,4.3891,55.75081905,48.74390430,1.75000000,
23.421222,8.9422,-1.5774,4.3891,55.75081905,48.74390430,1.75000000,
23.422118,8.9422,-1.5774,4.3891,55.75081905,48.74390430,1.75000000,
23.422574,8.7117,0.6825,3.9259,55.75081905,48.74390430,1.75000000,
23.483822,8.7117,0.6825,3.9259,55.75081905,48.74390430,1.75000000,
23.484627,8.7117,0.6825,3.9259,55.75081905,48.74390430,1.75000000,
23.485042,4.6880,1.4089,-4.5509,55.75081905,48.74390430,1.75000000,
23.547578,4.6880,1.4089,-4.5509,55.75081905,48.74390430,1.75000000,
23.548492,4.6880,1.4089,-4.5509,55.75083186,48.74391582,1.36000001,
23.549208,-3.5920,-2.1590,-14.0295,55.75083186,48.74391582,1.36000001,
23.609457,-3.5920,-2.1590,-14.0295,55.75083186,48.74391582,1.36000001,
23.610785,-3.5920,-2.1590,-14.0295,55.75083186,48.74391582,1.36000001,
23.611551,-5.9772,1.2002,-12.2680,55.75083186,48.74391582,1.36000001,
23.672638,-5.9772,1.2002,-12.2680,55.75083186,48.74391582,1.36000001,
23.673811,-5.9772,1.2002,-12.2680,55.75083186,48.74391582,1.36000001,
23.674424,-1.4453,2.1750,1.6545,55.75083186,48.74391582,1.36000001,
23.734958,-1.4453,2.1750,1.6545,55.75083186,48.74391582,1.36000001,
23.735873,-1.4453,2.1750,1.6545,55.75083186,48.74391582,1.36000001,
23.736344,1.6573,2.8029,4.6276,55.75083186,48.74391582,1.36000001,
23.797871,1.6573,2.8029,4.6276,55.75083186,48.74391582,1.36000001,
23.798750,1.6573,2.8029,4.6276,55.75083186,48.74391582,1.36000001,
23.799196,3.6201,4.0424,8.1336,55.75083186,48.74391582,1.36000001,
23.860887,3.6201,4.0424,8.1336,55.75083186,48.74391582,1.36000001,
23.861785,3.6201,4.0424,8.1336,55.75083186,48.74391582,1.36000001,
23.862229,1.9792,4.6335,6.4745,55.75083186,48.74391582,1.36000001,
23.923390,1.9792,4.6335,6.4745,55.75083186,48.74391582,1.36000001,
23.924317,1.9792,4.6335,6.4745,55.75083186,48.74391582,1.36000001,
23.924788,-0.6050,4.3198,1.9345,55.75083186,48.74391582,1.36000001,
23.985490,-0.6050,4.3198,1.9345,55.75083186,48.74391582,1.36000001,
23.986428,-0.6050,4.3198,1.9345,55.75083186,48.74391582,1.36000001,
23.986911,-1.9554,-2.7933,-11.3560,55.75083186,48.74391582,1.36000001,
24.048769,-1.9554,-2.7933,-11.3560,55.75083186,48.74391582,1.36000001,
24.049659,-1.9554,-2.7933,-11.3560,55.75083186,48.74391582,1.36000001,
24.050156,1.6472,-3.1315,-8.1444,55.75083186,48.74391582,1.36000001,
24.111173,1.6472,-3.1315,-8.1444,55.75083186,48.74391582,1.36000001,
24.112066,1.6472,-3.1315,-8.1444,55.75083186,48.74391582,1.36000001,
24.112535,2.7703,-9.8135,-4.0881,55.75083186,48.74391582,1.36000001,
24.174186,2.7703,-9.8135,-4.0881,55.75083186,48.74391582,1.36000001,
24.175142,2.7703,-9.8135,-4.0881,55.75083186,48.74391582,1.36000001,
24.175608,5.3947,-3.4268,5.5017,55.75083186,48.74391582,1.36000001,
24.238647,5.1708,-0.3362,7.8043,55.75083186,48.74391582,1.36000001,
24.239925,5.1708,-0.3362,7.8043,55.75083186,48.74391582,1.36000001,
24.240357,5.1708,-0.3362,7.8043,55.75083186,48.74391582,1.36000001,
24.301448,5.1708,-0.3362,7.8043,55.75083186,48.74391582,1.36000001,
24.302373,5.1708,-0.3362,7.8043,55.75083186,48.74391582,1.36000001,
24.302813,4.2938,-3.2108,0.4152,55.75083186,48.74391582,1.36000001,
24.361841,4.2938,-3.2108,0.4152,55.75083186,48.74391582,1.36000001,
24.362765,4.2938,-3.2108,0.4152,55.75083186,48.74391582,1.36000001,
24.363287,0.0837,-1.8590,-13.2159,55.75083186,48.74391582,1.36000001,
24.425203,0.0837,-1.8590,-13.2159,55.75083186,48.74391582,1.36000001,
24.426175,0.0837,-1.8590,-13.2159,55.75083186,48.74391582,1.36000001,
24.426717,-3.2509,3.3235,-8.2264,55.75083186,48.74391582,1.36000001,
24.488226,-3.2509,3.3235,-8.2264,55.75083186,48.74391582,1.36000001,
24.489158,-3.2509,3.3235,-8.2264,55.75083186,48.74391582,1.36000001,
24.489611,0.9407,1.2435,6.4941,55.75083186,48.74391582,1.36000001,
24.549561,0.9407,1.2435,6.4941,55.75083186,48.74391582,1.36000001,
24.550384,0.9407,1.2435,6.4941,55.75084780,48.74391577,2.53999996,
24.551053,0.6065,3.4562,8.2228,55.75084780,48.74391577,2.53999996,
24.613565,-1.1858,4.0902,3.1445,55.75084780,48.74391577,2.53999996,
24.614919,-1.1858,4.0902,3.1445,55.75084780,48.74391577,2.53999996,
24.615388,-1.1858,4.0902,3.1445,55.75084780,48.74391577,2.53999996,
24.675305,-1.1858,4.0902,3.1445,55.75084780,48.74391577,2.53999996,
24.676066,-1.1858,4.0902,3.1445,55.75084780,48.74391577,2.53999996,
24.676511,-1.2974,0.0401,-8.0961,55.75084780,48.74391577,2.53999996,
24.738739,-1.2974,0.0401,-8.0961,55.75084780,48.74391577,2.53999996,
24.739659,-1.2974,0.0401,-8.0961,55.75084780,48.74391577,2.53999996,
24.740200,0.0604,-4.4576,-6.4094,55.75084780,48.74391577,2.53999996,
24.800846,0.0604,-4.4576,-6.4094,55.75084780,48.74391577,2.53999996,
24.801792,0.0604,-4.4576,-6.4094,55.75084780,48.74391577,2.53999996,
24.802211,6.0990,-7.7588,-3.4299,55.75084780,48.74391577,2.53999996,
24.864311,10.3102,-0.2649,3.8131,55.75084780,48.74391577,2.53999996,
24.865649,10.3102,-0.2649,3.8131,55.75084780,48.74391577,2.53999996,
24.866096,10.3102,-0.2649,3.8131,55.75084780,48.74391577,2.53999996,
24.928349,6.5911,1.8748,-1.7099,55.75084780,48.74391577,2.53999996,
24.929707,6.5911,1.8748,-1.7099,55.75084780,48.74391577,2.53999996,
24.930180,6.5911,1.8748,-1.7099,55.75084780,48.74391577,2.53999996,
24.990623,0.6610,-0.2332,-9.1444,55.75084780,48.74391577,2.53999996,
24.991897,0.6610,-0.2332,-9.1444,55.75084780,48.74391577,2.53999996,
24.992332,0.6610,-0.2332,-9.1444,55.75084780,48.74391577,2.53999996,
25.052599,-3.6204,0.0887,-9.2979,55.75084780,48.74391577,2.53999996,
25.053971,-3.6204,0.0887,-9.2979,55.75084780,48.74391577,2.53999996,
25.054402,-3.6204,0.0887,-9.2979,55.75084780,48.74391577,2.53999996,
25.115633,1.9779,3.5245,4.6607,55.75084780,48.74391577,2.53999996,
25.116935,1.9779,3.5245,4.6607,55.75084780,48.74391577,2.53999996,
25.117368,1.9779,3.5245,4.6607,55.75084780,48.74391577,2.53999996,
25.178432,0.6040,5.2902,8.6406,55.75084780,48.74391577,2.53999996,
25.179576,0.6040,5.2902,8.6406,55.75084780,48.74391577,2.53999996,
25.180059,0.6040,5.2902,8.6406,55.75084780,48.74391577,2.53999996,
25.241812,-1.6163,4.1474,5.7866,55.75084780,48.74391577,2.53999996,
25.243209,-1.6163,4.1474,5.7866,55.75084780,48.74391577,2.53999996,
25.243659,-1.6163,4.1474,5.7866,55.75084780,48.74391577,2.53999996,
25.304236,-1.6163,4.1474,5.7866,55.75084780,48.74391577,2.53999996,
25.305119,-1.6163,4.1474,5.7866,55.75084780,48.74391577,2.53999996,
25.305688,-3.9250,-1.7551,-9.3602,55.75084780,48.74391577,2.53999996,
25.366268,-3.9250,-1.7551,-9.3602,55.75084780,48.74391577,2.53999996,
25.367229,-3.9250,-1.7551,-9.3602,55.75084780,48.74391577,2.53999996,
25.367684,3.3782,-3.3983,-6.9435,55.75084780,48.74391577,2.53999996,
25.430008,3.3782,-3.3983,-6.9435,55.75084780,48.74391577,2.53999996,
25.430927,3.3782,-3.3983,-6.9435,55.75084780,48.74391577,2.53999996,
25.431355,4.8391,-8.8958,4.5876,55.75084780,48.74391577,2.53999996,
25.492770,4.8391,-8.8958,4.5876,55.75084780,48.74391577,2.53999996,
25.493739,4.8391,-8.8958,4.5876,55.75084780,48.74391577,2.53999996,
25.494162,4.2219,-5.6361,3.5958,55.75084780,48.74391577,2.53999996,
25.555213,4.2219,-5.6361,3.5958,55.75084780,48.74391577,2.53999996,
25.556089,4.2219,-5.6361,3.5958,55.75086608,48.74389293,3.01999998,
25.556844,5.4235,-1.4152,3.6925,55.75086608,48.74389293,3.01999998,
25.616002,5.4235,-1.4152,3.6925,55.75086608,48.74389293,3.01999998,
25.616979,5.4235,-1.4152,3.6925,55.75086608,48.74389293,3.01999998,
25.617445,8.0796,0.5984,-6.1079,55.75086608,48.74389293,3.01999998,
25.679581,8.0796,0.5984,-6.1079,55.75086608,48.74389293,3.01999998,
25.680548,8.0796,0.5984,-6.1079,55.75086608,48.74389293,3.01999998,
25.681009,0.0309,0.1470,-16.9267,55.75086608,48.74389293,3.01999998,
25.743370,0.0309,0.1470,-16.9267,55.75086608,48.74389293,3.01999998,
25.744282,0.0309,0.1470,-16.9267,55.75086608,48.74389293,3.01999998,
25.744716,-0.3857,3.1282,0.9407,55.75086608,48.74389293,3.01999998,
25.805993,-0.3857,3.1282,0.9407,55.75086608,48.74389293,3.01999998,
25.806938,-0.3857,3.1282,0.9407,55.75086608,48.74389293,3.01999998,
25.807354,-1.0062,3.9340,4.8496,55.75086608,48.74389293,3.01999998,
25.867948,-7.4451,-0.5692,0.3063,55.75086608,48.74389293,3.01999998,
25.869253,-7.4451,-0.5692,0.3063,55.75086608,48.74389293,3.01999998,
25.869678,-7.4451,-0.5692,0.3063,55.75086608,48.74389293,3.01999998,
25.929908,-7.4451,-0.5692,0.3063,55.75086608,48.74389293,3.01999998,
25.930828,-7.4451,-0.5692,0.3063,55.75086608,48.74389293,3.01999998,
25.931262,-3.1566,4.2272,0.1328,55.75086608,48.74389293,3.01999998,
25.991889,-3.1566,4.2272,0.1328,55.75086608,48.74389293,3.01999998,
25.992824,-3.1566,4.2272,0.1328,55.75086608,48.74389293,3.01999998,
25.993298,4.0586,-0.3311,-8.6898,55.75086608,48.74389293,3.01999998,
26.056237,4.0586,-0.3311,-8.6898,55.75086608,48.74389293,3.01999998,
26.057138,4.0586,-0.3311,-8.6898,55.75086608,48.74389293,3.01999998,
26.057553,11.1715,-1.8120,-6.4556,55.75086608,48.74389293,3.01999998,
26.119409,10.2258,-7.7734,0.0572,55.75086608,48.74389293,3.01999998,
26.120689,10.2258,-7.7734,0.0572,55.75086608,48.74389293,3.01999998,
26.121114,10.2258,-7.7734,0.0572,55.75086608,48.74389293,3.01999998,
26.180198,10.2258,-7.7734,0.0572,55.75086608,48.74389293,3.01999998,
26.181093,10.2258,-7.7734,0.0572,55.75086608,48.74389293,3.01999998,
26.181544,4.9101,-3.4250,3.0338,55.75086608,48.74389293,3.01999998,
26.242900,4.9101,-3.4250,3.0338,55.75086608,48.74389293,3.01999998,
26.243834,4.9101,-3.4250,3.0338,55.75086608,48.74389293,3.01999998,
26.244269,0.7910,0.0467,2.0413,55.75086608,48.74389293,3.01999998,
26.307589,0.7910,0.0467,2.0413,55.75086608,48.74389293,3.01999998,
26.308496,0.7910,0.0467,2.0413,55.75086608,48.74389293,3.01999998,
26.308933,0.8893,0.1129,-0.9837,55.75086608,48.74389293,3.01999998,
26.370224,0.8893,0.1129,-0.9837,55.75086608,48.74389293,3.01999998,
26.371510,0.8893,0.1129,-0.9837,55.75086608,48.74389293,3.01999998,
26.371970,2.3551,-4.1856,-4.4100,55.75086608,48.74389293,3.01999998,
26.432372,-1.6420,-2.9101,-5.6373,55.75086608,48.74389293,3.01999998,
26.433711,-1.6420,-2.9101,-5.6373,55.75086608,48.74389293,3.01999998,
26.434161,-1.6420,-2.9101,-5.6373,55.75086608,48.74389293,3.01999998,
26.494975,-1.6420,-2.9101,-5.6373,55.75086608,48.74389293,3.01999998,
26.495887,-1.6420,-2.9101,-5.6373,55.75086608,48.74389293,3.01999998,
26.496331,1.5560,2.8065,5.5882,55.75086608,48.74389293,3.01999998,
26.556225,1.5560,2.8065,5.5882,55.75086608,48.74389293,3.01999998,
26.557193,1.5560,2.8065,5.5882,55.75088124,48.74385364,3.29999995,
26.557979,1.6689,4.9044,5.0454,55.75088124,48.74385364,3.29999995,
26.618963,1.6689,4.9044,5.0454,55.75088124,48.74385364,3.29999995,
26.619922,1.6689,4.9044,5.0454,55.75088124,48.74385364,3.29999995,
26.620360,0.9838,3.3792,5.2469,55.75088124,48.74385364,3.29999995,
26.682059,0.9838,3.3792,5.2469,55.75088124,48.74385364,3.29999995,
26.682964,0.9838,3.3792,5.2469,55.75088124,48.74385364,3.29999995,
26.683451,-1.8294,2.4468,-2.9509,55.75088124,48.74385364,3.29999995,
26.743950,-1.8294,2.4468,-2.9509,55.75088124,48.74385364,3.29999995,
26.744855,-1.8294,2.4468,-2.9509,55.75088124,48.74385364,3.29999995,
26.745297,-4.4179,-4.4334,-17.9732,55.75088124,48.74385364,3.29999995,
26.806810,-4.4179,-4.4334,-17.9732,55.75088124,48.74385364,3.29999995,
26.807619,-4.4179,-4.4334,-17.9732,55.75088124,48.74385364,3.29999995,
26.808072,1.6802,-8.0228,-8.8782,55.75088124,48.74385364,3.29999995,
26.870433,1.6802,-8.0228,-8.8782,55.75088124,48.74385364,3.29999995,
26.871325,1.6802,-8.0228,-8.8782,55.75088124,48.74385364,3.29999995,
26.871764,3.1529,-6.6263,4.7075,55.75088124,48.74385364,3.29999995,
26.932800,3.1605,-1.6891,7.9313,55.75088124,48.74385364,3.29999995,
26.934263,3.1605,-1.6891,7.9313,55.75088124,48.74385364,3.29999995,
26.934723,3.1605,-1.6891,7.9313,55.75088124,48.74385364,3.29999995,
26.995106,3.1605,-1.6891,7.9313,55.75088124,48.74385364,3.29999995,
26.995988,3.1605,-1.6891,7.9313,55.75088124,48.74385364,3.29999995,
26.996456,5.5221,-0.5103,8.8561,55.75088124,48.74385364,3.29999995,
27.057865,3.6712,-2.7441,-2.7726,55.75088124,48.74385364,3.29999995,
27.059123,3.6712,-2.7441,-2.7726,55.75088124,48.74385364,3.29999995,
27.059575,3.6712,-2.7441,-2.7726,55.75088124,48.74385364,3.29999995,
27.120943,3.6712,-2.7441,-2.7726,55.75088124,48.74385364,3.29999995,
27.121898,3.6712,-2.7441,-2.7726,55.75088124,48.74385364,3.29999995,
27.122381,-5.0886,-4.6828,-21.0118,55.75088124,48.74385364,3.29999995,
27.183494,-2.6145,-1.0513,0.0343,55.75088124,48.74385364,3.29999995,
27.184805,-2.6145,-1.0513,0.0343,55.75088124,48.74385364,3.29999995,
27.185232,-2.6145,-1.0513,0.0343,55.75088124,48.74385364,3.29999995,
27.245951,0.8359,3.6173,6.3876,55.75088124,48.74385364,3.29999995,
27.247425,0.8359,3.6173,6.3876,55.75088124,48.74385364,3.29999995,
27.247884,0.8359,3.6173,6.3876,55.75088124,48.74385364,3.29999995,
27.309444,0.8359,3.6173,6.3876,55.75088124,48.74385364,3.29999995,
27.310386,0.8359,3.6173,6.3876,55.75088124,48.74385364,3.29999995,
27.310833,2.6149,7.0402,9.0781,55.75088124,48.74385364,3.29999995,
27.372778,0.5951,6.9700,9.5446,55.75088124,48.74385364,3.29999995,
27.374044,0.5951,6.9700,9.5446,55.75088124,48.74385364,3.29999995,
27.374476,0.5951,6.9700,9.5446,55.75088124,48.74385364,3.29999995,
27.434550,0.5951,6.9700,9.5446,55.75088124,48.74385364,3.29999995,
27.435417,0.5951,6.9700,9.5446,55.75088124,48.74385364,3.29999995,
27.435840,-2.8051,4.8133,-1.9846,55.75088124,48.74385364,3.29999995,
27.496584,-2.8051,4.8133,-1.9846,55.75088124,48.74385364,3.29999995,
27.497589,-2.8051,4.8133,-1.9846,55.75088124,48.74385364,3.29999995,
27.498072,-4.7320,-4.2751,-17.5854,55.75088124,48.74385364,3.29999995,
27.561497,-4.7320,-4.2751,-17.5854,55.75088124,48.74385364,3.29999995,
27.562281,-4.7320,-4.2751,-17.5854,55.75088969,48.74380842,3.00999999,
27.562957,2.9887,-4.9319,-5.9908,55.75088969,48.74380842,3.00999999,
27.623717,2.9887,-4.9319,-5.9908,55.75088969,48.74380842,3.00999999,
27.625336,2.9887,-4.9319,-5.9908,55.75088969,48.74380842,3.00999999,
27.626337,5.5977,-5.0996,4.0490,55.75088969,48.74380842,3.00999999,
27.685281,5.2619,-1.8809,9.2551,55.75088969,48.74380842,3.00999999,
27.686608,5.2619,-1.8809,9.2551,55.75088969,48.74380842,3.00999999,
27.687060,5.2619,-1.8809,9.2551,55.75088969,48.74380842,3.00999999,
27.748163,5.3683,-0.8245,8.2710,55.75088969,48.74380842,3.00999999,
27.749331,5.3683,-0.8245,8.2710,55.75088969,48.74380842,3.00999999,
27.749787,5.3683,-0.8245,8.2710,55.75088969,48.74380842,3.00999999,
27.812095,2.6753,-2.6861,-5.0537,55.75088969,48.74380842,3.00999999,
27.813584,2.6753,-2.6861,-5.0537,55.75088969,48.74380842,3.00999999,
27.814022,2.6753,-2.6861,-5.0537,55.75088969,48.74380842,3.00999999,
27.875079,-4.1524,-6.1417,-16.7710,55.75088969,48.74380842,3.00999999,
27.876419,-4.1524,-6.1417,-16.7710,55.75088969,48.74380842,3.00999999,
27.876868,-4.1524,-6.1417,-16.7710,55.75088969,48.74380842,3.00999999,
27.938010,-3.2952,0.4058,-4.7888,55.75088969,48.74380842,3.00999999,
27.939233,-3.2952,0.4058,-4.7888,55.75088969,48.74380842,3.00999999,
27.939665,-3.2952,0.4058,-4.7888,55.75088969,48.74380842,3.00999999,
27.998685,-3.2952,0.4058,-4.7888,55.75088969,48.74380842,3.00999999,
27.999560,-3.2952,0.4058,-4.7888,55.75088969,48.74380842,3.00999999,
28.000041,0.6516,2.5601,8.7555,55.75088969,48.74380842,3.00999999,
28.060547,0.6516,2.5601,8.7555,55.75088969,48.74380842,3.00999999,
28.061384,0.6516,2.5601,8.7555,55.75088969,48.74380842,3.00999999,
28.061831,-1.0087,3.6849,7.9495,55.75088969,48.74380842,3.00999999,
28.123746,-2.4955,3.6378,9.9493,55.75088969,48.74380842,3.00999999,
28.125039,-2.4955,3.6378,9.9493,55.75088969,48.74380842,3.00999999,
28.125490,-2.4955,3.6378,9.9493,55.75088969,48.74380842,3.00999999,
28.187100,-3.4789,5.1867,0.3916,55.75088969,48.74380842,3.00999999,
28.188391,-3.4789,5.1867,0.3916,55.75088969,48.74380842,3.00999999,
28.188849,-3.4789,5.1867,0.3916,55.75088969,48.74380842,3.00999999,
28.251277,-1.5170,-2.1209,-17.6459,55.75088969,48.74380842,3.00999999,
28.252541,-1.5170,-2.1209,-17.6459,55.75088969,48.74380842,3.00999999,
28.252978,-1.5170,-2.1209,-17.6459,55.75088969,48.74380842,3.00999999,
28.312922,2.3296,-5.9697,-5.6223,55.75088969,48.74380842,3.00999999,
28.314193,2.3296,-5.9697,-5.6223,55.75088969,48.74380842,3.00999999,
28.314630,2.3296,-5.9697,-5.6223,55.75088969,48.74380842,3.00999999,
28.375364,2.3296,-5.9697,-5.6223,55.75088969,48.74380842,3.00999999,
28.376305,2.3296,-5.9697,-5.6223,55.75088969,48.74380842,3.00999999,
28.376798,4.3347,-5.1193,3.9498,55.75088969,48.74380842,3.00999999,
28.438628,3.9275,-2.8513,7.6395,55.75088969,48.74380842,3.00999999,
28.439900,3.9275,-2.8513,7.6395,55.75088969,48.74380842,3.00999999,
28.440747,3.9275,-2.8513,7.6395,55.75088969,48.74380842,3.00999999,
28.499789,3.9275,-2.8513,7.6395,55.75088969,48.74380842,3.00999999,
28.500701,3.9275,-2.8513,7.6395,55.75088969,48.74380842,3.00999999,
28.501141,3.1089,-2.5282,5.3484,55.75088969,48.74380842,3.00999999,
28.563559,3.1089,-2.5282,5.3484,55.75088969,48.74380842,3.00999999,
28.564357,3.1089,-2.5282,5.3484,55.75089658,48.74376907,2.31999993,
28.565050,2.9079,-1.3152,0.9057,55.75089658,48.74376907,2.31999993,
28.627676,2.9079,-1.3152,0.9057,55.75089658,48.74376907,2.31999993,
28.628577,2.9079,-1.3152,0.9057,55.75089658,48.74376907,2.31999993,
28.629014,-1.3723,-2.4637,-14.6016,55.75089658,48.74376907,2.31999993,
28.688501,-1.3723,-2.4637,-14.6016,55.75089658,48.74376907,2.31999993,
28.689425,-1.3723,-2.4637,-14.6016,55.75089658,48.74376907,2.31999993,
28.689905,-0.1083,-3.7704,-5.0448,55.75089658,48.74376907,2.31999993,
28.752392,-0.1083,-3.7704,-5.0448,55.75089658,48.74376907,2.31999993,
28.753396,-0.1083,-3.7704,-5.0448,55.75089658,48.74376907,2.31999993,
28.753830,1.4180,-0.7230,6.7283,55.75089658,48.74376907,2.31999993,
28.815560,1.4180,-0.7230,6.7283,55.75089658,48.74376907,2.31999993,
28.816517,1.4180,-0.7230,6.7283,55.75089658,48.74376907,2.31999993,
28.816940,-0.6968,3.9900,7.9857,55.75089658,48.74376907,2.31999993,
28.878359,-1.8608,6.8001,6.8957,55.75089658,48.74376907,2.31999993,
28.879610,-1.8608,6.8001,6.8957,55.75089658,48.74376907,2.31999993,
28.880099,-1.8608,6.8001,6.8957,55.75089658,48.74376907,2.31999993,
28.939346,-1.8608,6.8001,6.8957,55.75089658,48.74376907,2.31999993,
28.940203,-1.8608,6.8001,6.8957,55.75089658,48.74376907,2.31999993,
28.940659,-1.6240,4.2337,0.2569,55.75089658,48.74376907,2.31999993,
29.000734,-1.6240,4.2337,0.2569,55.75089658,48.74376907,2.31999993,
29.001533,-1.6240,4.2337,0.2569,55.75089658,48.74376907,2.31999993,
29.001960,1.3880,-1.1758,-16.1123,55.75089658,48.74376907,2.31999993,
29.063271,1.3880,-1.1758,-16.1123,55.75089658,48.74376907,2.31999993,
29.064115,1.3880,-1.1758,-16.1123,55.75089658,48.74376907,2.31999993,
29.064565,0.9001,-9.1250,-4.8694,55.75089658,48.74376907,2.31999993,
29.126659,0.9001,-9.1250,-4.8694,55.75089658,48.74376907,2.31999993,
29.127569,0.9001,-9.1250,-4.8694,55.75089658,48.74376907,2.31999993,
29.127997,2.1896,-6.7346,7.6714,55.75089658,48.74376907,2.31999993,
29.191434,2.1896,-6.7346,7.6714,55.75089658,48.74376907,2.31999993,
29.192321,2.1896,-6.7346,7.6714,55.75089658,48.74376907,2.31999993,
29.192753,4.1262,-3.2831,8.6051,55.75089658,48.74376907,2.31999993,
29.252854,3.8696,-0.2061,3.8848,55.75089658,48.74376907,2.31999993,
29.254124,3.8696,-0.2061,3.8848,55.75089658,48.74376907,2.31999993,
29.254556,3.8696,-0.2061,3.8848,55.75089658,48.74376907,2.31999993,
29.315786,-1.3163,-4.1682,-12.3536,55.75089658,48.74376907,2.31999993,
29.317102,-1.3163,-4.1682,-12.3536,55.75089658,48.74376907,2.31999993,
29.317550,-1.3163,-4.1682,-12.3536,55.75089658,48.74376907,2.31999993,
29.379562,-4.2754,0.2125,-14.3299,55.75089658,48.74376907,2.31999993,
29.380867,-4.2754,0.2125,-14.3299,55.75089658,48.74376907,2.31999993,
29.381301,-4.2754,0.2125,-14.3299,55.75089658,48.74376907,2.31999993,
29.442426,0.0578,1.1996,4.3087,55.75089658,48.74376907,2.31999993,
29.443776,0.0578,1.1996,4.3087,55.75089658,48.74376907,2.31999993,
29.444198,0.0578,1.1996,4.3087,55.75089658,48.74376907,2.31999993,
29.502569,0.0578,1.1996,4.3087,55.75089658,48.74376907,2.31999993,
29.504297,0.0578,1.1996,4.3087,55.75089658,48.74376907,2.31999993,
29.505302,1.1067,4.4762,10.3595,55.75089658,48.74376907,2.31999993,
29.566128,1.1067,4.4762,10.3595,55.75089658,48.74376907,2.31999993,
29.567083,1.1067,4.4762,10.3595,55.75090306,48.74372709,3.01999998,
29.567835,0.3745,7.3104,10.8735,55.75090306,48.74372709,3.01999998,
29.629318,0.3745,7.3104,10.8735,55.75090306,48.74372709,3.01999998,
29.630279,0.3745,7.3104,10.8735,55.75090306,48.74372709,3.01999998,
29.630711,-1.5978,5.7080,3.5590,55.75090306,48.74372709,3.01999998,
29.692275,-4.5371,1.6833,-20.4297,55.75090306,48.74372709,3.01999998,
29.693906,-4.5371,1.6833,-20.4297,55.75090306,48.74372709,3.01999998,
29.694502,-4.5371,1.6833,-20.4297,55.75090306,48.74372709,3.01999998,
29.755310,2.2495,-9.3723,-6.4149,55.75090306,48.74372709,3.01999998,
29.756706,2.2495,-9.3723,-6.4149,55.75090306,48.74372709,3.01999998,
29.757153,2.2495,-9.3723,-6.4149,55.75090306,48.74372709,3.01999998,
29.816219,2.2495,-9.3723,-6.4149,55.75090306,48.74372709,3.01999998,
29.817117,2.2495,-9.3723,-6.4149,55.75090306,48.74372709,3.01999998,
29.817574,4.7304,-10.2129,3.2865,55.75090306,48.74372709,3.01999998,
29.879451,4.1687,-1.9914,8.9571,55.75090306,48.74372709,3.01999998,
29.880827,4.1687,-1.9914,8.9571,55.75090306,48.74372709,3.01999998,
29.881316,4.1687,-1.9914,8.9571,55.75090306,48.74372709,3.01999998,
29.942275,4.1687,-1.9914,8.9571,55.75090306,48.74372709,3.01999998,
29.943278,4.1687,-1.9914,8.9571,55.75090306,48.74372709,3.01999998,
29.943740,4.1788,-1.0300,4.4696,55.75090306,48.74372709,3.01999998,
30.004343,3.3349,-1.6004,-1.0271,55.75090306,48.74372709,3.01999998,
30.005526,3.3349,-1.6004,-1.0271,55.75090306,48.74372709,3.01999998,
30.005987,3.3349,-1.6004,-1.0271,55.75090306,48.74372709,3.01999998,
30.067410,-3.9972,-3.9945,-15.3590,55.75090306,48.74372709,3.01999998,
30.068899,-3.9972,-3.9945,-15.3590,55.75090306,48.74372709,3.01999998,
30.069454,-3.9972,-3.9945,-15.3590,55.75090306,48.74372709,3.01999998,
30.130133,-3.9972,-3.9945,-15.3590,55.75090306,48.74372709,3.01999998,
30.131406,-3.9972,-3.9945,-15.3590,55.75090306,48.74372709,3.01999998,
30.132012,-2.1999,0.6714,-3.8578,55.75090306,48.74372709,3.01999998,
30.192857,-2.1999,0.6714,-3.8578,55.75090306,48.74372709,3.01999998,
30.193788,-2.1999,0.6714,-3.8578,55.75090306,48.74372709,3.01999998,
30.194219,-0.9037,7.3747,6.1249,55.75090306,48.74372709,3.01999998,
30.255816,-0.9037,7.3747,6.1249,55.75090306,48.74372709,3.01999998,
30.256713,-0.9037,7.3747,6.1249,55.75090306,48.74372709,3.01999998,
30.257143,0.3446,5.0852,7.6034,55.75090306,48.74372709,3.01999998,
30.318696,0.3446,5.0852,7.6034,55.75090306,48.74372709,3.01999998,
30.319599,0.3446,5.0852,7.6034,55.75090306,48.74372709,3.01999998,
30.320108,2.8042,5.6555,6.9756,55.75090306,48.74372709,3.01999998,
30.381110,2.8042,5.6555,6.9756,55.75090306,48.74372709,3.01999998,
30.381964,2.8042,5.6555,6.9756,55.75090306,48.74372709,3.01999998,
30.382384,0.2745,5.3508,-5.2376,55.75090306,48.74372709,3.01999998,
30.443496,0.2745,5.3508,-5.2376,55.75090306,48.74372709,3.01999998,
30.444365,0.2745,5.3508,-5.2376,55.75090306,48.74372709,3.01999998,
30.444799,-5.1274,-3.3991,-16.5871,55.75090306,48.74372709,3.01999998,
30.505637,-5.1274,-3.3991,-16.5871,55.75090306,48.74372709,3.01999998,
30.506486,-5.1274,-3.3991,-16.5871,55.75090306,48.74372709,3.01999998,
30.506933,1.6422,-12.4168,-3.1149,55.75090306,48.74372709,3.01999998,
30.568814,1.6422,-12.4168,-3.1149,55.75090306,48.74372709,3.01999998,
30.569709,1.6422,-12.4168,-3.1149,55.75091089,48.74368449,2.57999992,
30.570488,8.7294,-5.7081,2.1233,55.75091089,48.74368449,2.57999992,
30.633039,9.9510,-3.0258,3.6175,55.75091089,48.74368449,2.57999992,
30.634388,9.9510,-3.0258,3.6175,55.75091089,48.74368449,2.57999992,
30.634838,9.9510,-3.0258,3.6175,55.75091089,48.74368449,2.57999992,
30.696151,9.9510,-3.0258,3.6175,55.75091089,48.74368449,2.57999992,
30.697197,9.9510,-3.0258,3.6175,55.75091089,48.74368449,2.57999992,
30.697658,6.2516,-1.8585,-3.3669,55.75091089,48.74368449,2.57999992,
30.757348,6.2516,-1.8585,-3.3669,55.75091089,48.74368449,2.57999992,
30.758303,6.2516,-1.8585,-3.3669,55.75091089,48.74368449,2.57999992,
30.758742,-2.9194,0.6285,-15.0881,55.75091089,48.74368449,2.57999992,
30.820528,-2.9194,0.6285,-15.0881,55.75091089,48.74368449,2.57999992,
30.821433,-2.9194,0.6285,-15.0881,55.75091089,48.74368449,2.57999992,
30.821855,-1.8888,0.9150,-3.5182,55.75091089,48.74368449,2.57999992,
30.883474,-1.8888,0.9150,-3.5182,55.75091089,48.74368449,2.57999992,
30.884391,-1.8888,0.9150,-3.5182,55.75091089,48.74368449,2.57999992,
30.884842,-2.5328,3.0309,5.0171,55.75091089,48.74368449,2.57999992,
30.945473,-2.2601,4.7311,8.1246,55.75091089,48.74368449,2.57999992,
30.946970,-2.2601,4.7311,8.1246,55.75091089,48.74368449,2.57999992,
30.947408,-2.2601,4.7311,8.1246,55.75091089,48.74368449,2.57999992,
31.009463,-1.3601,5.6122,8.5614,55.75091089,48.74368449,2.57999992,
31.010844,-1.3601,5.6122,8.5614,55.75091089,48.74368449,2.57999992,
31.011294,-1.3601,5.6122,8.5614,55.75091089,48.74368449,2.57999992,
31.070871,-1.3601,5.6122,8.5614,55.75091089,48.74368449,2.57999992,
31.071845,-1.3601,5.6122,8.5614,55.75091089,48.74368449,2.57999992,
31.072333,0.4626,6.2698,10.0272,55.75091089,48.74368449,2.57999992,
31.133683,0.4626,6.2698,10.0272,55.75091089,48.74368449,2.57999992,
31.134597,0.4626,6.2698,10.0272,55.75091089,48.74368449,2.57999992,
31.135034,-7.7095,1.1861,-19.6007,55.75091089,48.74368449,2.57999992,
31.197446,-7.7095,1.1861,-19.6007,55.75091089,48.74368449,2.57999992,
31.198676,-7.7095,1.1861,-19.6007,55.75091089,48.74368449,2.57999992,
31.199255,-1.1819,-8.6040,-7.3745,55.75091089,48.74368449,2.57999992,
31.258414,-1.1819,-8.6040,-7.3745,55.75091089,48.74368449,2.57999992,
31.259312,-1.1819,-8.6040,-7.3745,55.75091089,48.74368449,2.57999992,
31.259773,3.7904,-7.6764,-3.2667,55.75091089,48.74368449,2.57999992,
31.322872,3.7904,-7.6764,-3.2667,55.75091089,48.74368449,2.57999992,
31.323831,3.7904,-7.6764,-3.2667,55.75091089,48.74368449,2.57999992,
31.324294,9.1130,-2.8433,4.4010,55.75091089,48.74368449,2.57999992,
31.383980,9.1130,-2.8433,4.4010,55.75091089,48.74368449,2.57999992,
31.384944,9.1130,-2.8433,4.4010,55.75091089,48.74368449,2.57999992,
31.385414,9.7678,-0.9487,-6.5731,55.75091089,48.74368449,2.57999992,
31.446377,9.7678,-0.9487,-6.5731,55.75091089,48.74368449,2.57999992,
31.447412,9.7678,-0.9487,-6.5731,55.75091089,48.74368449,2.57999992,
31.447866,-5.3845,7.4574,-11.0352,55.75091089,48.74368449,2.57999992,
31.513471,-5.3845,7.4574,-11.0352,55.75091089,48.74368449,2.57999992,
31.514335,-8.8500,1.2226,-4.9740,55.75091089,48.74368449,2.57999992,
31.515149,-8.8500,1.2226,-4.9740,55.75091089,48.74368449,2.57999992,
31.572625,-8.8500,1.2226,-4.9740,55.75091089,48.74368449,2.57999992,
31.573557,-8.8500,1.2226,-4.9740,55.75092016,48.74364525,2.99000001,
31.574416,-2.4541,-0.4692,4.3529,55.75092016,48.74364525,2.99000001,
31.634518,-2.4541,-0.4692,4.3529,55.75092016,48.74364525,2.99000001,
31.635426,-2.4541,-0.4692,4.3529,55.75092016,48.74364525,2.99000001,
31.635875,1.6260,1.7299,6.8131,55.75092016,48.74364525,2.99000001,
31.697731,0.1997,3.3116,10.3969,55.75092016,48.74364525,2.99000001,
31.699045,0.1997,3.3116,10.3969,55.75092016,48.74364525,2.99000001,
31.699499,0.1997,3.3116,10.3969,55.75092016,48.74364525,2.99000001,
31.760350,0.1997,3.3116,10.3969,55.75092016,48.74364525,2.99000001,
31.761268,0.1997,3.3116,10.3969,55.75092016,48.74364525,2.99000001,
31.761710,-5.1895,6.7582,-0.4826,55.75092016,48.74364525,2.99000001,
31.824615,-6.9496,1.7394,-18.4209,55.75092016,48.74364525,2.99000001,
31.826192,-6.9496,1.7394,-18.4209,55.75092016,48.74364525,2.99000001,
31.826817,-6.9496,1.7394,-18.4209,55.75092016,48.74364525,2.99000001,
31.886748,-6.9496,1.7394,-18.4209,55.75092016,48.74364525,2.99000001,
31.887953,-6.9496,1.7394,-18.4209,55.75092016,48.74364525,2.99000001,
31.888515,4.2717,-3.6923,-0.1949,55.75092016,48.74364525,2.99000001,
31.950332,4.2717,-3.6923,-0.1949,55.75092016,48.74364525,2.99000001,
31.951231,4.2717,-3.6923,-0.1949,55.75092016,48.74364525,2.99000001,
31.951656,7.2530,-6.5120,2.4648,55.75092016,48.74364525,2.99000001,
32.010533,7.2530,-6.5120,2.4648,55.75092016,48.74364525,2.99000001,
32.011386,7.2530,-6.5120,2.4648,55.75092016,48.74364525,2.99000001,
32.011823,6.6656,-2.5087,8.7393,55.75092016,48.74364525,2.99000001,
32.073200,6.6656,-2.5087,8.7393,55.75092016,48.74364525,2.99000001,
32.074017,6.6656,-2.5087,8.7393,55.75092016,48.74364525,2.99000001,
32.074463,5.0412,-2.6690,3.0826,55.75092016,48.74364525,2.99000001,
32.137203,5.0412,-2.6690,3.0826,55.75092016,48.74364525,2.99000001,
32.138158,5.0412,-2.6690,3.0826,55.75092016,48.74364525,2.99000001,
32.138598,-0.4569,-6.6523,-14.8147,55.75092016,48.74364525,2.99000001,
32.201392,-4.3031,2.8672,-20.5113,55.75092016,48.74364525,2.99000001,
32.202609,-4.3031,2.8672,-20.5113,55.75092016,48.74364525,2.99000001,
32.203031,-4.3031,2.8672,-20.5113,55.75092016,48.74364525,2.99000001,
32.261468,-4.3031,2.8672,-20.5113,55.75092016,48.74364525,2.99000001,
32.262475,-4.3031,2.8672,-20.5113,55.75092016,48.74364525,2.99000001,
32.262946,-1.7266,5.4318,-0.3820,55.75092016,48.74364525,2.99000001,
32.325069,-4.5742,9.0436,9.0489,55.75092016,48.74364525,2.99000001,
32.326454,-4.5742,9.0436,9.0489,55.75092016,48.74364525,2.99000001,
32.326889,-4.5742,9.0436,9.0489,55.75092016,48.74364525,2.99000001,
32.388201,-4.5742,9.0436,9.0489,55.75092016,48.74364525,2.99000001,
32.389081,-4.5742,9.0436,9.0489,55.75092016,48.74364525,2.99000001,
32.389506,-7.5992,7.5040,10.5303,55.75092016,48.74364525,2.99000001,
32.451616,-7.5992,7.5040,10.5303,55.75092016,48.74364525,2.99000001,
32.452528,-7.5992,7.5040,10.5303,55.75092016,48.74364525,2.99000001,
32.452959,-4.6681,5.0211,0.7372,55.75092016,48.74364525,2.99000001,
32.512647,-4.6681,5.0211,0.7372,55.75092016,48.74364525,2.99000001,
32.513512,-4.6681,5.0211,0.7372,55.75092016,48.74364525,2.99000001,
32.513957,-0.4224,-1.9861,-11.1924,55.75092016,48.74364525,2.99000001,
32.574860,-0.4224,-1.9861,-11.1924,55.75092016,48.74364525,2.99000001,
32.575752,-0.4224,-1.9861,-11.1924,55.75093421,48.74360263,3.74000001,
32.576542,3.6376,-5.7264,-5.4357,55.75093421,48.74360263,3.74000001,
32.637104,3.6376,-5.7264,-5.4357,55.75093421,48.74360263,3.74000001,
32.638039,3.6376,-5.7264,-5.4357,55.75093421,48.74360263,3.74000001,
32.638487,8.5207,-1.1037,4.9603,55.75093421,48.74360263,3.74000001,
32.700603,8.5207,-1.1037,4.9603,55.75093421,48.74360263,3.74000001,
32.701511,8.5207,-1.1037,4.9603,55.75093421,48.74360263,3.74000001,
32.701949,8.8778,-2.8242,2.9175,55.75093421,48.74360263,3.74000001,
32.762988,8.8778,-2.8242,2.9175,55.75093421,48.74360263,3.74000001,
32.763873,8.8778,-2.8242,2.9175,55.75093421,48.74360263,3.74000001,
32.764312,6.6110,-1.0979,0.0771,55.75093421,48.74360263,3.74000001,
32.826347,6.6110,-1.0979,0.0771,55.75093421,48.74360263,3.74000001,
32.827297,6.6110,-1.0979,0.0771,55.75093421,48.74360263,3.74000001,
32.827736,-2.6033,-3.9398,-17.1686,55.75093421,48.74360263,3.74000001,
32.888587,-2.6033,-3.9398,-17.1686,55.75093421,48.74360263,3.74000001,
32.889502,-2.6033,-3.9398,-17.1686,55.75093421,48.74360263,3.74000001,
32.890046,0.1495,1.4256,-3.3630,55.75093421,48.74360263,3.74000001,
32.951908,0.1495,1.4256,-3.3630,55.75093421,48.74360263,3.74000001,
32.952839,0.1495,1.4256,-3.3630,55.75093421,48.74360263,3.74000001,
32.953351,0.7313,3.3910,3.5023,55.75093421,48.74360263,3.74000001,
33.014832,0.7313,3.3910,3.5023,55.75093421,48.74360263,3.74000001,
33.015732,0.7313,3.3910,3.5023,55.75093421,48.74360263,3.74000001,
33.016165,-1.2293,5.0234,7.8664,55.75093421,48.74360263,3.74000001,
33.077115,-1.2293,5.0234,7.8664,55.75093421,48.74360263,3.74000001,
33.078012,-1.2293,5.0234,7.8664,55.75093421,48.74360263,3.74000001,
33.078498,-2.2811,8.2683,6.1005,55.75093421,48.74360263,3.74000001,
33.141761,-2.2811,8.2683,6.1005,55.75093421,48.74360263,3.74000001,
33.142664,-2.2811,8.2683,6.1005,55.75093421,48.74360263,3.74000001,
33.143134,0.3097,5.4266,-4.3038,55.75093421,48.74360263,3.74000001,
33.202148,0.3097,5.4266,-4.3038,55.75093421,48.74360263,3.74000001,
33.202964,0.3097,5.4266,-4.3038,55.75093421,48.74360263,3.74000001,
33.203482,3.3198,-2.9839,-15.7806,55.75093421,48.74360263,3.74000001,
33.264699,3.3198,-2.9839,-15.7806,55.75093421,48.74360263,3.74000001,
33.265592,3.3198,-2.9839,-15.7806,55.75093421,48.74360263,3.74000001,
33.266038,6.6307,-7.1459,-0.4458,55.75093421,48.74360263,3.74000001,
33.328410,4.7490,-9.6396,5.1634,55.75093421,48.74360263,3.74000001,
33.329696,4.7490,-9.6396,5.1634,55.75093421,48.74360263,3.74000001,
33.330192,4.7490,-9.6396,5.1634,55.75093421,48.74360263,3.74000001,
33.390256,4.5452,-2.7084,3.0037,55.75093421,48.74360263,3.74000001,
33.391506,4.5452,-2.7084,3.0037,55.75093421,48.74360263,3.74000001,
33.391954,4.5452,-2.7084,3.0037,55.75093421,48.74360263,3.74000001,
33.453598,3.9872,-0.5178,-3.2826,55.75093421,48.74360263,3.74000001,
33.454961,3.9872,-0.5178,-3.2826,55.75093421,48.74360263,3.74000001,
33.455402,3.9872,-0.5178,-3.2826,55.75093421,48.74360263,3.74000001,
33.516742,3.9872,-0.5178,-3.2826,55.75093421,48.74360263,3.74000001,
33.517638,3.9872,-0.5178,-3.2826,55.75095216,48.74356105,3.35999990,
33.518337,-0.8315,-0.3105,-14.2198,55.75095216,48.74356105,3.35999990,
33.578575,-0.8315,-0.3105,-14.2198,55.75095216,48.74356105,3.35999990,
33.579527,-0.8315,-0.3105,-14.2198,55.75095216,48.74356105,3.35999990,
33.580038,-1.4071,2.2192,-6.8217,55.75095216,48.74356105,3.35999990,
33.641015,-1.4071,2.2192,-6.8217,55.75095216,48.74356105,3.35999990,
33.641926,-1.4071,2.2192,-6.8217,55.75095216,48.74356105,3.35999990,
33.642354,-0.3278,4.6469,4.6145,55.75095216,48.74356105,3.35999990,
33.703649,-0.3278,4.6469,4.6145,55.75095216,48.74356105,3.35999990,
33.704538,-0.3278,4.6469,4.6145,55.75095216,48.74356105,3.35999990,
33.704979,-0.3799,5.4132,8.4466,55.75095216,48.74356105,3.35999990,
33.766071,-0.3799,5.4132,8.4466,55.75095216,48.74356105,3.35999990,
33.767099,-0.3799,5.4132,8.4466,55.75095216,48.74356105,3.35999990,
33.767549,0.2511,4.6355,8.4697,55.75095216,48.74356105,3.35999990,
33.828650,-1.0194,5.0599,-1.4188,55.75095216,48.74356105,3.35999990,
33.829904,-1.0194,5.0599,-1.4188,55.75095216,48.74356105,3.35999990,
33.830332,-1.0194,5.0599,-1.4188,55.75095216,48.74356105,3.35999990,
33.891992,-1.0194,5.0599,-1.4188,55.75095216,48.74356105,3.35999990,
33.892922,-1.0194,5.0599,-1.4188,55.75095216,48.74356105,3.35999990,
33.893432,-1.7475,-2.2928,-16.3762,55.75095216,48.74356105,3.35999990,
33.954472,-1.7475,-2.2928,-16.3762,55.75095216,48.74356105,3.35999990,
33.955341,-1.7475,-2.2928,-16.3762,55.75095216,48.74356105,3.35999990,
33.955789,1.6868,-2.8356,-3.7036,55.75095216,48.74356105,3.35999990,
34.017004,5.1308,-8.3948,2.2497,55.75095216,48.74356105,3.35999990,
34.018409,5.1308,-8.3948,2.2497,55.75095216,48.74356105,3.35999990,
34.018857,5.1308,-8.3948,2.2497,55.75095216,48.74356105,3.35999990,
34.079872,5.1308,-8.3948,2.2497,55.75095216,48.74356105,3.35999990,
34.080780,5.1308,-8.3948,2.2497,55.75095216,48.74356105,3.35999990,
34.081226,6.8604,-6.5643,5.7964,55.75095216,48.74356105,3.35999990,
34.142746,6.8604,-6.5643,5.7964,55.75095216,48.74356105,3.35999990,
34.143714,6.8604,-6.5643,5.7964,55.75095216,48.74356105,3.35999990,
34.144164,4.1296,-4.8695,0.3223,55.75095216,48.74356105,3.35999990,
34.206161,-0.1993,-3.9672,-10.0625,55.75095216,48.74356105,3.35999990,
34.207931,-0.1993,-3.9672,-10.0625,55.75095216,48.74356105,3.35999990,
34.208498,-0.1993,-3.9672,-10.0625,55.75095216,48.74356105,3.35999990,
34.268824,-0.1993,-3.9672,-10.0625,55.75095216,48.74356105,3.35999990,
34.270068,-0.1993,-3.9672,-10.0625,55.75095216,48.74356105,3.35999990,
34.270634,-3.8058,2.2801,-12.3085,55.75095216,48.74356105,3.35999990,
34.332603,-3.8058,2.2801,-12.3085,55.75095216,48.74356105,3.35999990,
34.333566,-3.8058,2.2801,-12.3085,55.75095216,48.74356105,3.35999990,
34.334012,-0.0864,5.0343,1.6703,55.75095216,48.74356105,3.35999990,
34.392813,-0.0864,5.0343,1.6703,55.75095216,48.74356105,3.35999990,
34.393818,-0.0864,5.0343,1.6703,55.75095216,48.74356105,3.35999990,
34.394267,4.2405,7.7260,4.7939,55.75095216,48.74356105,3.35999990,
34.455452,4.2405,7.7260,4.7939,55.75095216,48.74356105,3.35999990,
34.456290,3.2203,8.7993,5.1686,55.75095216,48.74356105,3.35999990,
34.457118,3.2203,8.7993,5.1686,55.75095216,48.74356105,3.35999990,
34.517828,3.2203,8.7993,5.1686,55.75095216,48.74356105,3.35999990,
34.518560,3.2203,8.7993,5.1686,55.75096820,48.74351734,3.41000009,
34.519225,-4.0910,4.6503,-1.5196,55.75096820,48.74351734,3.41000009,
34.581340,-4.0910,4.6503,-1.5196,55.75096820,48.74351734,3.41000009,
34.582198,-4.0910,4.6503,-1.5196,55.75096820,48.74351734,3.41000009,
34.582623,-6.5676,-0.5215,-15.0355,55.75096820,48.74351734,3.41000009,
34.647440,-6.5676,-0.5215,-15.0355,55.75096820,48.74351734,3.41000009,
34.650120,-6.5676,-0.5215,-15.0355,55.75096820,48.74351734,3.41000009,
34.651807,0.9382,-1.0308,-0.3847,55.75096820,48.74351734,3.41000009,
34.706695,0.9382,-1.0308,-0.3847,55.75096820,48.74351734,3.41000009,
34.707527,0.9382,-1.0308,-0.3847,55.75096820,48.74351734,3.41000009,
34.708097,6.2936,-9.4005,2.1270,55.75096820,48.74351734,3.41000009,
34.769966,6.2936,-9.4005,2.1270,55.75096820,48.74351734,3.41000009,
34.770862,6.2936,-9.4005,2.1270,55.75096820,48.74351734,3.41000009,
34.771292,8.9004,-8.7885,2.2699,55.75096820,48.74351734,3.41000009,
34.832625,8.9004,-8.7885,2.2699,55.75096820,48.74351734,3.41000009,
34.833718,8.9004,-8.7885,2.2699,55.75096820,48.74351734,3.41000009,
34.834166,5.5631,-6.4965,-5.3886,55.75096820,48.74351734,3.41000009,
34.894846,5.5631,-6.4965,-5.3886,55.75096820,48.74351734,3.41000009,
34.895772,5.5631,-6.4965,-5.3886,55.75096820,48.74351734,3.41000009,
34.896223,-1.6147,-0.5868,-12.1211,55.75096820,48.74351734,3.41000009,
34.957713,-1.6147,-0.5868,-12.1211,55.75096820,48.74351734,3.41000009,
34.958569,-1.6147,-0.5868,-12.1211,55.75096820,48.74351734,3.41000009,
34.959021,-3.6378,6.7251,-11.6471,55.75096820,48.74351734,3.41000009,
35.019809,-3.6378,6.7251,-11.6471,55.75096820,48.74351734,3.41000009,
35.020726,-3.6378,6.7251,-11.6471,55.75096820,48.74351734,3.41000009,
35.021162,3.1010,6.2804,0.8238,55.75096820,48.74351734,3.41000009,
35.082094,3.1010,6.2804,0.8238,55.75096820,48.74351734,3.41000009,
35.083145,3.1010,6.2804,0.8238,55.75096820,48.74351734,3.41000009,
35.083599,3.7971,3.2571,8.1897,55.75096820,48.74351734,3.41000009,
35.145585,1.0511,5.7241,10.1051,55.75096820,48.74351734,3.41000009,
35.146817,1.0511,5.7241,10.1051,55.75096820,48.74351734,3.41000009,
35.147264,1.0511,5.7241,10.1051,55.75096820,48.74351734,3.41000009,
35.208333,1.0511,5.7241,10.1051,55.75096820,48.74351734,3.41000009,
35.209295,1.0511,5.7241,10.1051,55.75096820,48.74351734,3.41000009,
35.209784,-2.1736,3.2793,-0.8527,55.75096820,48.74351734,3.41000009,
35.270571,-2.1736,3.2793,-0.8527,55.75096820,48.74351734,3.41000009,
35.271436,-4.4597,-0.6927,-21.3976,55.75096820,48.74351734,3.41000009,
35.272206,-4.4597,-0.6927,-21.3976,55.75096820,48.74351734,3.41000009,
35.333889,-4.4597,-0.6927,-21.3976,55.75096820,48.74351734,3.41000009,
35.334802,-4.4597,-0.6927,-21.3976,55.75096820,48.74351734,3.41000009,
35.335242,2.3783,-3.9966,-2.3623,55.75096820,48.74351734,3.41000009,
35.396919,4.2733,-7.0224,7.0483,55.75096820,48.74351734,3.41000009,
35.398278,4.2733,-7.0224,7.0483,55.75096820,48.74351734,3.41000009,
35.398734,4.2733,-7.0224,7.0483,55.75096820,48.74351734,3.41000009,
35.461172,4.2733,-7.0224,7.0483,55.75096820,48.74351734,3.41000009,
35.462136,4.2733,-7.0224,7.0483,55.75096820,48.74351734,3.41000009,
35.462570,3.5446,-2.8645,6.9956,55.75096820,48.74351734,3.41000009,
35.520773,3.5446,-2.8645,6.9956,55.75096820,48.74351734,3.41000009,
35.521614,3.5446,-2.8645,6.9956,55.75098201,48.74347422,2.53999996,
35.522302,6.0159,-2.5310,5.3864,55.75098201,48.74347422,2.53999996,
35.584877,6.0159,-2.5310,5.3864,55.75098201,48.74347422,2.53999996,
35.585753,6.0159,-2.5310,5.3864,55.75098201,48.74347422,2.53999996,
35.586200,4.0073,-7.9302,-5.0998,55.75098201,48.74347422,2.53999996,
35.647253,4.0073,-7.9302,-5.0998,55.75098201,48.74347422,2.53999996,
35.648173,4.0073,-7.9302,-5.0998,55.75098201,48.74347422,2.53999996,
35.648615,-0.6760,-2.9730,-17.5495,55.75098201,48.74347422,2.53999996,
35.710264,-0.6760,-2.9730,-17.5495,55.75098201,48.74347422,2.53999996,
35.711246,-0.6760,-2.9730,-17.5495,55.75098201,48.74347422,2.53999996,
35.711708,0.3191,4.2084,-1.0437,55.75098201,48.74347422,2.53999996,
35.772754,0.3191,4.2084,-1.0437,55.75098201,48.74347422,2.53999996,
35.774290,0.3191,4.2084,-1.0437,55.75098201,48.74347422,2.53999996,
35.774756,2.2807,5.1098,9.2961,55.75098201,48.74347422,2.53999996,
35.835831,2.2807,5.1098,9.2961,55.75098201,48.74347422,2.53999996,
35.838095,0.5578,6.0543,8.9516,55.75098201,48.74347422,2.53999996,
35.840252,0.5578,6.0543,8.9516,55.75098201,48.74347422,2.53999996,
35.901088,0.5578,6.0543,8.9516,55.75098201,48.74347422,2.53999996,
35.903016,0.5578,6.0543,8.9516,55.75098201,48.74347422,2.53999996,
35.904060,-2.0875,4.3982,-1.6489,55.75098201,48.74347422,2.53999996,
35.959581,-2.0875,4.3982,-1.6489,55.75098201,48.74347422,2.53999996,
35.960553,-2.0875,4.3982,-1.6489,55.75098201,48.74347422,2.53999996,
35.960987,-3.2198,-1.8120,-17.3949,55.75098201,48.74347422,2.53999996,
36.023345,-3.2198,-1.8120,-17.3949,55.75098201,48.74347422,2.53999996,
36.024167,-3.2198,-1.8120,-17.3949,55.75098201,48.74347422,2.53999996,
36.024610,2.4423,-4.0836,-3.4724,55.75098201,48.74347422,2.53999996,
36.086948,4.2663,-5.7982,7.6938,55.75098201,48.74347422,2.53999996,
36.088369,4.2663,-5.7982,7.6938,55.75098201,48.74347422,2.53999996,
36.088820,4.2663,-5.7982,7.6938,55.75098201,48.74347422,2.53999996,
36.149403,3.5620,-5.2782,7.4666,55.75098201,48.74347422,2.53999996,
36.150819,3.5620,-5.2782,7.4666,55.75098201,48.74347422,2.53999996,
36.151253,3.5620,-5.2782,7.4666,55.75098201,48.74347422,2.53999996,
36.211585,3.5620,-5.2782,7.4666,55.75098201,48.74347422,2.53999996,
36.212553,3.5620,-5.2782,7.4666,55.75098201,48.74347422,2.53999996,
36.213006,6.0057,-5.5803,1.4493,55.75098201,48.74347422,2.53999996,
36.275141,5.8378,-7.8157,-8.6049,55.75098201,48.74347422,2.53999996,
36.276376,5.8378,-7.8157,-8.6049,55.75098201,48.74347422,2.53999996,
36.276868,5.8378,-7.8157,-8.6049,55.75098201,48.74347422,2.53999996,
36.337588,-1.3036,-0.7858,-18.6386,55.75098201,48.74347422,2.53999996,
36.338881,-1.3036,-0.7858,-18.6386,55.75098201,48.74347422,2.53999996,
36.339332,-1.3036,-0.7858,-18.6386,55.75098201,48.74347422,2.53999996,
36.399573,1.1588,3.2459,1.0896,55.75098201,48.74347422,2.53999996,
36.400892,1.1588,3.2459,1.0896,55.75098201,48.74347422,2.53999996,
36.401328,1.1588,3.2459,1.0896,55.75098201,48.74347422,2.53999996,
36.462164,1.1588,3.2459,1.0896,55.75098201,48.74347422,2.53999996,
36.463069,1.1588,3.2459,1.0896,55.75098201,48.74347422,2.53999996,
36.463525,-2.7127,7.6753,4.3887,55.75098201,48.74347422,2.53999996,
36.525200,-2.7127,7.6753,4.3887,55.75098201,48.74347422,2.53999996,
36.526087,-2.7127,7.6753,4.3887,55.75099352,48.74343706,2.50999999,
36.526858,-4.2819,9.8492,12.1080,55.75099352,48.74343706,2.50999999,
36.587646,-2.6231,4.1006,2.1333,55.75099352,48.74343706,2.50999999,
36.588735,-2.6231,4.1006,2.1333,55.75099352,48.74343706,2.50999999,
36.589176,-2.6231,4.1006,2.1333,55.75099352,48.74343706,2.50999999,
36.650057,-2.6231,4.1006,2.1333,55.75099352,48.74343706,2.50999999,
36.650938,-2.6231,4.1006,2.1333,55.75099352,48.74343706,2.50999999,
36.651395,0.6837,-7.5553,-15.0114,55.75099352,48.74343706,2.50999999,
36.714013,3.5814,-8.9913,-11.1306,55.75099352,48.74343706,2.50999999,
36.715272,3.5814,-8.9913,-11.1306,55.75099352,48.74343706,2.50999999,
36.715704,3.5814,-8.9913,-11.1306,55.75099352,48.74343706,2.50999999,
36.777575,3.5814,-8.9913,-11.1306,55.75099352,48.74343706,2.50999999,
36.778506,3.5814,-8.9913,-11.1306,55.75099352,48.74343706,2.50999999,
36.778920,9.1135,1.3886,7.2067,55.75099352,48.74343706,2.50999999,
36.838925,9.1135,1.3886,7.2067,55.75099352,48.74343706,2.50999999,
36.839923,9.1135,1.3886,7.2067,55.75099352,48.74343706,2.50999999,
36.840370,5.9663,3.5733,11.8263,55.75099352,48.74343706,2.50999999,
36.900969,5.9663,3.5733,11.8263,55.75099352,48.74343706,2.50999999,
36.901902,5.9663,3.5733,11.8263,55.75099352,48.74343706,2.50999999,
